timestamp,accelerometer_x,accelerometer_y,accelerometer_z,magnetometer_x,magnetometer_y,magnetometer_z,gyroscope_x,gyroscope_y,gyroscope_z
1710733109851,0.3065804,-0.16510476,9.870992,-15.262501,31.25625,-158.60626,4.5813544E-4,6.8720314E-4,0.004275931
1710733109963,0.124426775,0.29940194,9.851849,-15.187501,30.487501,-159.28125,-1.5271181E-4,0.0037414394,-0.014049487
1710733110058,0.19860429,0.0071784677,9.866206,-15.187501,30.243752,-160.125,-7.635591E-4,0.0019088977,0.0018325418
1710733110160,0.18664017,0.083748795,9.861421,-16.66875,31.406252,-158.55,0.00167983,0.0019088977,-6.1084726E-4
1710733110264,0.22253251,0.04546363,9.87817,-18.956251,32.30625,-158.94376,-0.0025961008,0.0037414394,0.002443389
1710733110372,0.22971097,0.062213387,9.837492,-16.893751,31.462502,-159.1125,0.0029015245,6.8720314E-4,-0.004275931
1710733110476,0.23449662,0.11964113,9.880563,-17.23125,31.44375,-159.16876,0.0010689828,0.0019088977,-0.004886778
1710733110585,0.23688944,0.043070808,9.870992,-18.018751,30.88125,-159.26251,0.00167983,6.8720314E-4,-0.004275931
1710733110688,0.22253251,0.09810573,9.880563,-17.625,31.425001,-158.56876,-7.635591E-4,0.0031305922,-6.1084726E-4
1710733110790,0.24646074,0.023928227,9.902099,-17.8125,31.237501,-158.4375,0.0022906773,0.002519745,-0.0012216945
1710733110894,0.25603202,0.22492532,9.892527,-16.5375,31.931252,-158.41876,4.5813544E-4,0.0031305922,0.0030542363
1710733110999,0.23449662,0.04546363,9.880563,-16.44375,31.462502,-157.63126,-0.0019852535,0.002519745,0.004275931
1710733111101,0.22971097,0.11006984,9.868599,-17.1375,31.462502,-159.45001,0.00167983,0.0012980504,-0.0030542363
1710733111210,0.24646074,0.076570325,9.866206,-17.4375,31.743752,-158.70001,-1.5271181E-4,0.0012980504,0.002443389
1710733111321,0.22731815,0.059820566,9.863813,-17.71875,31.125002,-158.88751,0.0022906773,0.0037414394,0.0
1710733111419,0.21535404,0.09571291,9.856635,-17.7,31.931252,-158.4375,0.0010689828,0.002519745,-0.0018325418
1710733111524,0.22731815,0.069391854,9.861421,-17.475,31.1625,-158.60626,0.0010689828,0.0012980504,-0.0018325418
1710733111626,0.22971097,0.09332009,9.863813,-17.60625,31.837502,-158.70001,4.5813544E-4,6.8720314E-4,0.0
1710733111726,0.23449662,0.05742774,9.863813,-17.0625,31.66875,-158.08125,-1.5271181E-4,0.0031305922,0.0
1710733111837,0.20817557,0.07178468,9.859028,-17.15625,31.1625,-157.66876,0.0010689828,0.002519745,0.0
1710733111939,0.21774685,0.078963146,9.882956,-17.34375,31.10625,-158.21251,-1.5271181E-4,0.0012980504,-0.0012216945
1710733112044,0.13878371,-0.09332009,9.875777,-17.4375,30.806252,-159.05626,0.00167983,6.8720314E-4,-0.012216945
1710733112148,0.37597227,0.48364928,9.839885,-17.681252,31.3875,-158.83125,-0.0013744063,0.0031305922,0.007330167
1710733112256,0.25124636,-0.016749758,9.870992,-17.268751,30.975,-158.75626,-1.5271181E-4,0.0012980504,0.004886778
1710733112361,0.14596218,0.16510476,9.870992,-17.400002,31.35,-158.68126,-1.5271181E-4,0.002519745,6.1084726E-4
1710733112462,0.23928227,0.08135597,9.870992,-17.456251,31.35,-158.23126,0.0029015245,0.0012980504,0.0061084726
1710733112567,0.27756742,-0.011964113,9.861421,-17.4375,31.275002,-158.98126,0.00167983,6.8720314E-4,0.0
1710733112671,0.2009971,0.13878371,9.863813,-17.456251,31.7625,-159.0375,0.0010689828,0.002519745,0.0061084726
1710733112775,0.23449662,-0.0047856453,9.868599,-17.2875,32.025,-158.475,0.00167983,0.002519745,-0.002443389
1710733112876,0.22013968,0.13878371,9.880563,-17.118752,31.500002,-158.26875,0.00167983,0.0019088977,-0.0030542363
1710733112979,0.18903299,0.043070808,9.868599,-17.212502,31.968752,-158.38126,0.0010689828,0.0019088977,-0.002443389
1710733113087,0.19381863,0.18664017,9.866206,-17.53125,31.368752,-159.0,-1.5271181E-4,0.0031305922,6.1084726E-4
1710733113187,0.16031912,0.011964113,9.859028,-18.337502,31.575,-159.09375,-1.5271181E-4,0.007406523,0.0061084726
1710733113292,0.2727818,0.09332009,9.868599,-17.306252,32.081253,-157.95001,0.0029015245,0.0012980504,-0.014049487
1710733113395,0.17706887,0.08135597,9.873384,-17.0625,31.500002,-158.88751,4.5813544E-4,0.0019088977,0.0
1710733113496,0.20338993,0.06460621,9.861421,-17.1,31.462502,-158.71875,4.5813544E-4,0.0019088977,-0.007330167
1710733113599,0.19860429,0.076570325,9.859028,-17.4375,31.312502,-158.4375,-0.0013744063,0.0012980504,-0.002443389
1710733113709,0.2321038,0.09810573,9.861421,-16.9125,31.425001,-158.25,-7.635591E-4,0.0019088977,-6.1084726E-4
1710733113811,0.2105684,0.040677983,9.866206,-16.893751,31.425001,-157.9125,0.0010689828,0.0019088977,-0.002443389
1710733113914,0.22731815,0.083748795,9.892527,-16.5,30.956251,-158.70001,-1.5271181E-4,0.0012980504,-0.0036650836
1710733114020,0.20817557,0.0741775,9.854242,-17.4375,31.987501,-158.60626,-1.5271181E-4,0.0012980504,-0.004275931
1710733114119,0.20338993,0.03589234,9.854242,-17.118752,31.687502,-158.55,0.0010689828,0.0012980504,-0.007330167
1710733114227,0.23449662,0.069391854,9.880563,-17.681252,32.025,-158.56876,0.0010689828,0.0012980504,-0.0030542363
1710733114329,0.19860429,0.10289137,9.847063,-17.681252,31.725,-159.225,0.00167983,0.0031305922,-0.0018325418
1710733114437,0.2009971,0.09092726,9.847063,-17.175001,31.218752,-158.71875,-1.5271181E-4,0.0012980504,0.0
1710733114540,0.19381863,0.10049855,9.866206,-17.15625,31.7625,-158.32501,4.5813544E-4,0.002519745,-0.0061084726
1710733114644,0.2105684,0.023928227,9.854242,-17.4375,31.9125,-158.88751,0.0010689828,0.002519745,-0.0030542363
1710733114743,0.28983065,0.124426775,9.868599,-17.41875,31.650002,-157.125,4.5813544E-4,7.635591E-5,0.0012216945
1710733114846,0.2416751,0.031106694,9.868599,-16.6875,31.518751,-157.63126,-7.635591E-4,0.0019088977,-0.004275931
1710733114948,0.17706887,0.09571291,9.868599,-17.362501,31.593752,-158.02501,0.00167983,7.635591E-5,-6.1084726E-4
1710733115052,0.19381863,0.040677983,9.861421,-17.2875,31.29375,-157.78125,-7.635591E-4,7.635591E-5,-0.004886778
1710733115156,0.22492532,0.0526421,9.866206,-17.34375,31.125002,-158.71875,-0.0013744063,6.8720314E-4,-0.0012216945
1710733115260,0.22253251,0.05742774,9.868599,-17.8125,31.931252,-158.3625,-7.635591E-4,0.0019088977,-6.1084726E-4
1710733115361,0.22492532,0.059820566,9.875777,-16.95,31.575,-157.66876,0.00167983,0.0019088977,0.0
1710733115463,0.2105684,0.078963146,9.849456,-17.38125,31.125002,-158.3625,0.0010689828,0.0012980504,-0.0018325418
1710733115565,0.22013968,0.05503492,9.861421,-16.85625,32.25,-157.95001,-7.635591E-4,0.002519745,-0.0030542363
1710733115671,0.24646074,0.11964113,9.859028,-16.81875,31.0125,-157.76251,0.0010689828,-5.344914E-4,-6.1084726E-4
1710733115775,0.23928227,0.062213387,9.870992,-17.7,31.312502,-158.86876,4.5813544E-4,0.0012980504,-0.0012216945
1710733115878,0.2440679,0.11964113,9.887741,-17.868752,31.743752,-158.02501,-1.5271181E-4,0.0019088977,-0.0012216945
1710733115980,0.23688944,0.04546363,9.863813,-17.325,31.237501,-158.23126,4.5813544E-4,0.0019088977,-0.0018325418
1710733116084,0.22971097,0.062213387,9.873384,-17.5125,31.893751,-158.15625,-1.5271181E-4,0.0019088977,-0.002443389
1710733116188,0.22971097,0.05742774,9.873384,-17.41875,31.7625,-157.875,0.0010689828,-5.344914E-4,-0.004886778
1710733116292,0.21296121,0.07178468,9.868599,-17.19375,31.06875,-158.23126,4.5813544E-4,0.002519745,-0.0018325418
1710733116393,0.22492532,0.0741775,9.856635,-17.2875,31.031252,-158.08125,4.5813544E-4,0.0012980504,-0.0012216945
1710733116495,0.21296121,0.08135597,9.866206,-17.493752,31.312502,-158.32501,4.5813544E-4,0.002519745,-0.002443389
1710733116597,0.21296121,0.06699903,9.873384,-17.38125,31.837502,-157.76251,-1.5271181E-4,-0.0011453386,-0.0030542363
1710733116706,0.21535404,0.078963146,9.870992,-16.931252,31.312502,-157.48126,0.0010689828,6.8720314E-4,-0.0030542363
1710733116810,0.21535404,0.06460621,9.885348,-16.9125,31.35,-158.02501,-1.5271181E-4,0.0031305922,-6.1084726E-4
1710733116918,0.21535404,0.076570325,9.880563,-17.15625,31.968752,-158.1,-0.0013744063,6.8720314E-4,-0.0030542363
1710733117021,0.19381863,0.086141616,9.866206,-17.25,31.650002,-158.13751,-1.5271181E-4,0.0012980504,-0.0030542363
1710733117124,0.20817557,0.05503492,9.854242,-17.681252,31.800001,-157.1625,-7.635591E-4,0.0019088977,-0.002443389
1710733117226,0.21296121,0.08853444,9.875777,-17.41875,31.81875,-158.21251,0.0010689828,7.635591E-5,-0.0018325418
1710733117330,0.22253251,0.076570325,9.87817,-17.362501,31.031252,-158.13751,4.5813544E-4,6.8720314E-4,-0.002443389
1710733117434,0.22492532,0.08135597,9.875777,-17.5125,31.0125,-157.9125,4.5813544E-4,7.635591E-5,-0.002443389
1710733117539,0.20338993,0.047856454,9.875777,-16.893751,31.9125,-157.5375,0.0010689828,0.0031305922,-0.002443389
1710733117645,0.22253251,0.10767702,9.870992,-16.63125,30.900002,-157.5375,-7.635591E-4,-5.344914E-4,-6.1084726E-4
1710733117751,0.2105684,0.06699903,9.868599,-16.837502,31.518751,-158.34375,4.5813544E-4,0.0019088977,-0.0018325418
1710733117852,0.21774685,0.083748795,9.890134,-16.5375,31.9125,-158.04376,4.5813544E-4,6.8720314E-4,-0.0018325418
1710733117956,0.21296121,0.05503492,9.851849,-17.081251,31.29375,-157.83751,4.5813544E-4,0.002519745,-0.0030542363
1710733118059,0.2105684,0.08135597,9.882956,-17.081251,31.10625,-158.1,-1.5271181E-4,0.0019088977,-0.002443389
1710733118163,0.21774685,0.0526421,9.856635,-17.493752,31.66875,-158.30626,-1.5271181E-4,0.0012980504,-0.0012216945
1710733118265,0.22253251,0.069391854,9.887741,-17.79375,32.193752,-158.40001,4.5813544E-4,0.0012980504,-0.0018325418
1710733118371,0.20817557,0.07178468,9.856635,-17.1375,32.1375,-158.02501,0.0010689828,0.0012980504,-6.1084726E-4
1710733118471,0.21535404,0.0741775,9.870992,-16.725,31.743752,-158.55,4.5813544E-4,0.0012980504,-6.1084726E-4
1710733118575,0.22013968,0.0741775,9.885348,-16.85625,32.1375,-157.59375,4.5813544E-4,0.0019088977,-0.0030542363
1710733118678,0.22492532,0.11006984,9.870992,-17.081251,31.368752,-157.85626,4.5813544E-4,6.8720314E-4,6.1084726E-4
1710733118780,0.22971097,0.0526421,9.873384,-16.875,32.081253,-158.32501,-1.5271181E-4,0.0019088977,-0.0012216945
1710733118886,0.21296121,0.06460621,9.882956,-17.362501,31.218752,-157.9125,-1.5271181E-4,0.0012980504,-0.002443389
1710733118991,0.22013968,0.08135597,9.870992,-17.4375,31.425001,-157.8,0.0010689828,0.002519745,-0.002443389
1710733119094,0.2321038,0.059820566,9.87817,-17.7,32.0625,-157.44376,0.0010689828,0.0031305922,-0.002443389
1710733119197,0.22731815,0.08853444,9.885348,-16.893751,31.7625,-158.3625,4.5813544E-4,0.0019088977,-0.0036650836
1710733119301,0.20338993,0.038285162,9.875777,-17.175001,31.66875,-158.11876,-1.5271181E-4,0.0019088977,-0.0018325418
1710733119406,0.22492532,0.12203395,9.87817,-16.837502,31.687502,-158.23126,4.5813544E-4,0.0012980504,-0.009773556
1710733119506,0.22013968,0.08135597,9.890134,-17.025002,31.743752,-158.34375,0.0010689828,0.0019088977,-0.0012216945
1710733119608,0.27038896,0.05742774,9.875777,-17.081251,31.743752,-158.3625,4.5813544E-4,0.0012980504,-0.004886778
1710733119713,0.2009971,0.02632105,9.882956,-16.1625,31.050001,-159.07501,-1.5271181E-4,0.002519745,-0.0018325418
1710733119824,0.21535404,0.19381863,9.873384,-16.237501,31.931252,-158.6625,-0.0013744063,0.0012980504,0.020768806
1710733119923,0.2970091,0.11006984,9.868599,-16.10625,31.575,-158.64375,0.0022906773,6.8720314E-4,0.0036650836
1710733120027,0.20338993,0.062213387,9.866206,-16.40625,31.406252,-158.68126,-0.0013744063,6.8720314E-4,6.1084726E-4
1710733120129,0.18424734,0.078963146,9.885348,-17.175001,31.95,-157.9875,0.0010689828,0.0019088977,0.0018325418
1710733120236,0.22971097,-0.019142581,9.859028,-17.1375,30.937502,-158.3625,0.0022906773,0.002519745,0.004275931
1710733120332,0.2632105,0.17467605,9.866206,-16.893751,31.3875,-157.9125,4.5813544E-4,7.635591E-5,-0.0012216945
1710733120442,0.2105684,0.062213387,9.868599,-16.875,31.612501,-158.30626,-1.5271181E-4,0.0012980504,-0.005497625
1710733120544,0.18185452,0.0,9.870992,-17.04375,32.362503,-158.00626,-1.5271181E-4,6.8720314E-4,-0.002443389
1710733120648,0.2105684,0.09332009,9.868599,-17.118752,31.650002,-158.11876,0.0010689828,6.8720314E-4,-0.0018325418
1710733120754,0.2416751,0.038285162,9.842278,-16.44375,31.781252,-158.13751,-1.5271181E-4,0.0012980504,-0.0018325418
1710733120857,0.26081768,0.11964113,9.875777,-17.04375,31.031252,-159.07501,-1.5271181E-4,0.004352287,-0.004275931
1710733120959,0.15792629,0.021535404,9.870992,-16.612501,31.368752,-158.49376,-7.635591E-4,7.635591E-5,-0.0036650836
1710733121065,0.22731815,0.148355,9.859028,-16.5375,31.087502,-158.1,-1.5271181E-4,0.002519745,6.1084726E-4
1710733121171,0.3065804,0.08853444,9.885348,-16.125,30.54375,-158.83125,-1.5271181E-4,0.0012980504,-0.0018325418
1710733121272,0.21535404,0.1363909,9.875777,-16.931252,30.975,-158.8125,0.010231691,0.026342789,-0.0061084726
1710733121381,0.12921242,-0.069391854,9.870992,-17.5125,31.7625,-158.1,-0.012369657,-0.029244313,-0.0018325418
1710733121484,0.2105684,0.059820566,9.87817,-18.09375,32.362503,-158.21251,-0.017867282,-0.04146126,-0.0036650836
1710733121586,0.27996024,0.18424734,9.868599,-19.837502,34.03125,-158.925,-0.0025961008,0.002519745,-0.008551862
1710733121690,0.13399807,-0.27038896,9.851849,-20.53125,34.162502,-158.8125,0.0047340663,0.0122933015,-0.0036650836
1710733121792,0.33290145,0.16510476,9.849456,-20.25,34.050003,-158.8125,-1.5271181E-4,0.002519745,0.0036650836
1710733121895,0.31136605,-0.04546363,9.859028,-20.6625,34.18125,-158.83125,0.00167983,6.8720314E-4,0.007330167
1710733122001,0.2970091,-0.009571291,9.882956,-20.25,33.525,-159.05626,-7.635591E-4,0.0037414394,0.008551862
1710733122107,0.27756742,0.050249275,9.875777,-17.868752,32.11875,-158.925,0.0029015245,0.0055739814,0.0036650836
1710733122207,0.11006984,-0.009571291,9.873384,-17.325,31.875002,-158.7375,0.0022906773,0.0031305922,0.0036650836
1710733122309,0.23928227,0.14117654,9.866206,-17.1375,31.687502,-158.175,0.0010689828,0.0055739814,0.005497625
1710733122413,0.29940194,0.2009971,9.7654085,-16.575,31.1625,-157.9125,0.0053449133,0.013514996,0.0012216945
1710733122519,0.22013968,0.031106694,9.827921,-17.118752,31.125002,-158.475,-1.5271181E-4,-0.007253811,-0.0030542363
1710733122621,0.03589234,-0.16031912,9.894919,-18.337502,32.25,-158.96251,-0.009315421,-0.04940227,-0.01099525
1710733122723,0.25603202,0.15553348,9.880563,-19.1625,32.79375,-158.58751,0.004123219,0.0104607595,0.016492875
1710733122827,0.6343971,0.0023928226,9.832706,-18.712502,32.60625,-158.45625,4.5813544E-4,0.006795676,-0.015271181
1710733122931,-0.02632105,0.3592225,9.894919,-17.400002,31.612501,-158.96251,0.0053449133,0.022066858,-0.0061084726
1710733123037,0.31375888,-0.11964113,9.863813,-16.40625,31.81875,-157.89375,0.00167983,0.004963134,-0.012216945
1710733123138,0.2536392,0.15314065,9.870992,-15.337501,31.425001,-158.49376,-0.0013744063,0.0012980504,0.009773556
1710733123239,0.11964113,0.10049855,9.868599,-15.918751,31.66875,-159.26251,0.00167983,0.0031305922,-0.0061084726
1710733123342,0.18185452,0.023928227,9.868599,-16.10625,31.48125,-159.16876,-7.635591E-4,0.0012980504,-0.0036650836
1710733123441,0.2536392,0.016749758,9.87817,-15.69375,31.931252,-158.79376,0.0029015245,6.8720314E-4,0.0018325418
1710733123557,0.24885355,0.019142581,9.866206,-15.168751,31.275002,-159.16876,-0.0013744063,0.0012980504,-0.0018325418
1710733123652,0.2536392,0.1363909,9.880563,-15.975,31.706251,-159.46875,-1.5271181E-4,0.0019088977,-6.1084726E-4
1710733123755,0.20338993,0.08135597,9.870992,-16.95,31.650002,-158.94376,4.5813544E-4,7.635591E-5,-0.0012216945
1710733123864,0.1698904,0.03589234,9.870992,-15.95625,31.29375,-159.01875,4.5813544E-4,7.635591E-5,-6.1084726E-4
1710733123970,0.20578274,0.11485548,9.856635,-16.3125,31.368752,-158.51251,-1.5271181E-4,0.0012980504,0.0030542363
1710733124074,0.22731815,0.0526421,9.868599,-15.375001,31.7625,-159.28125,4.5813544E-4,0.002519745,0.0018325418
1710733124175,0.22971097,0.0741775,9.851849,-15.262501,31.125002,-159.0,-1.5271181E-4,6.8720314E-4,0.0
1710733124275,0.22971097,0.06699903,9.863813,-15.20625,31.3875,-158.625,4.5813544E-4,-5.344914E-4,-6.1084726E-4
1710733124381,0.22492532,0.038285162,9.875777,-14.7375,31.968752,-158.175,0.0010689828,0.0012980504,-6.1084726E-4
1710733124482,0.22731815,0.09332009,9.861421,-14.6625,31.7625,-158.23126,-1.5271181E-4,7.635591E-5,-0.0018325418
1710733124588,0.22731815,0.08853444,9.863813,-14.606251,30.993752,-157.8,-7.635591E-4,6.8720314E-4,0.0
1710733124688,0.20338993,0.062213387,9.861421,-14.868751,32.04375,-157.70625,-0.0013744063,0.0019088977,-6.1084726E-4
1710733124800,0.20578274,0.09092726,9.859028,-15.093751,31.29375,-158.02501,-1.5271181E-4,0.0019088977,-6.1084726E-4
1710733124906,0.22971097,0.078963146,9.866206,-14.19375,31.031252,-158.00626,-1.5271181E-4,0.002519745,6.1084726E-4
1710733125006,0.21296121,0.069391854,9.847063,-14.887501,31.031252,-158.19376,-1.5271181E-4,0.0019088977,-0.0012216945
1710733125104,0.22492532,0.09810573,9.856635,-15.20625,31.462502,-157.48126,4.5813544E-4,7.635591E-5,0.0012216945
1710733125209,0.22492532,0.069391854,9.856635,-15.150001,31.593752,-157.74376,0.0010689828,6.8720314E-4,0.0
1710733125312,0.21535404,0.06460621,9.854242,-15.262501,31.593752,-156.75,0.0010689828,7.635591E-5,0.0012216945
1710733125414,0.21535404,0.07178468,9.859028,-15.000001,31.5375,-156.80626,-1.5271181E-4,0.0019088977,6.1084726E-4
1710733125519,0.22492532,0.06699903,9.859028,-15.525001,31.612501,-157.425,-1.5271181E-4,0.0012980504,0.0012216945
1710733125620,0.22492532,0.08135597,9.84467,-15.900001,32.100002,-157.10626,4.5813544E-4,6.8720314E-4,-0.0012216945
1710733125723,0.22253251,0.06699903,9.856635,-15.093751,32.081253,-157.51875,4.5813544E-4,7.635591E-5,-0.0018325418
1710733125826,0.22731815,0.06699903,9.851849,-15.675,31.987501,-157.38751,-7.635591E-4,0.0012980504,6.1084726E-4
1710733125928,0.21296121,0.086141616,9.854242,-15.69375,32.1375,-157.9875,0.0010689828,0.0019088977,0.0012216945
1710733126032,0.21774685,0.0741775,9.820743,-16.050001,31.893751,-157.33125,-7.635591E-4,0.0019088977,0.0
1710733126135,0.21774685,0.07178468,9.851849,-16.2,31.968752,-156.4125,4.5813544E-4,6.8720314E-4,-6.1084726E-4
1710733126238,0.22013968,0.076570325,9.823135,-15.843751,31.462502,-157.875,4.5813544E-4,-5.344914E-4,0.0
1710733126342,0.22253251,0.07178468,9.849456,-15.375001,32.381252,-157.76251,4.5813544E-4,0.0019088977,0.0012216945
1710733126442,0.22253251,0.08853444,9.851849,-15.58125,31.687502,-157.57501,4.5813544E-4,0.0019088977,-6.1084726E-4
1710733126549,0.21774685,0.069391854,9.84467,-16.10625,31.556252,-157.125,-0.0019852535,6.8720314E-4,0.0
1710733126651,0.21535404,0.07178468,9.849456,-15.76875,31.66875,-157.6875,4.5813544E-4,0.0019088977,-6.1084726E-4
1710733126752,0.20817557,0.069391854,9.835099,-16.06875,31.143751,-158.19376,0.0010689828,0.0019088977,-0.0018325418
1710733126856,0.21296121,0.069391854,9.856635,-17.362501,31.500002,-158.53125,4.5813544E-4,6.8720314E-4,-0.0012216945
1710733126960,0.20817557,0.0741775,9.847063,-16.837502,31.9125,-158.925,0.00167983,7.635591E-5,6.1084726E-4
1710733127063,0.22253251,0.07178468,9.851849,-16.706251,31.331251,-158.58751,4.5813544E-4,0.0012980504,-6.1084726E-4
1710733127167,0.2105684,0.07178468,9.861421,-17.1,31.312502,-158.625,4.5813544E-4,7.635591E-5,-6.1084726E-4
1710733127270,0.22253251,0.076570325,9.832706,-16.987501,31.593752,-158.58751,-1.5271181E-4,0.0019088977,0.0
1710733127373,0.21535404,0.076570325,9.837492,-16.5375,31.706251,-158.4375,4.5813544E-4,6.8720314E-4,-0.0012216945
1710733127476,0.22253251,0.08135597,9.861421,-16.706251,31.368752,-159.01875,0.00167983,0.0019088977,0.0012216945
1710733127577,0.21296121,0.086141616,9.84467,-16.725,31.968752,-158.60626,4.5813544E-4,0.0012980504,-0.0018325418
1710733127680,0.22013968,0.08135597,9.84467,-16.7625,31.800001,-158.51251,0.00167983,0.002519745,0.0
1710733127783,0.22013968,0.07178468,9.866206,-16.931252,31.63125,-158.53125,-7.635591E-4,7.635591E-5,0.0
1710733127886,0.21296121,0.07178468,9.856635,-16.425001,31.81875,-158.85,4.5813544E-4,0.0012980504,0.0
1710733127990,0.21535404,0.06699903,9.856635,-16.3875,31.725,-158.0625,4.5813544E-4,-5.344914E-4,0.0012216945
1710733128096,0.2105684,0.08135597,9.847063,-17.25,31.781252,-158.49376,4.5813544E-4,0.0012980504,-6.1084726E-4
1710733128198,0.21774685,0.083748795,9.856635,-15.825001,31.987501,-157.96875,-1.5271181E-4,6.8720314E-4,0.0012216945
1710733128300,0.2321038,0.06460621,9.847063,-16.3875,31.743752,-158.8125,4.5813544E-4,7.635591E-5,0.0012216945
1710733128401,0.2105684,0.06699903,9.856635,-16.275002,32.2125,-158.71875,-7.635591E-4,6.8720314E-4,6.1084726E-4
1710733128509,0.22013968,0.06699903,9.859028,-15.8625,32.456253,-158.25,4.5813544E-4,0.0012980504,0.0
1710733128602,0.20817557,0.06699903,9.875777,-16.35,31.85625,-159.0375,-7.635591E-4,7.635591E-5,-6.1084726E-4
1710733128711,0.21296121,0.0741775,9.873384,-15.4125,31.29375,-158.19376,-7.635591E-4,0.0019088977,0.0
1710733128812,0.22731815,0.083748795,9.856635,-16.518751,31.781252,-157.70625,-7.635591E-4,0.0012980504,6.1084726E-4
1710733128918,0.21535404,0.05742774,9.875777,-16.44375,31.48125,-158.8125,4.5813544E-4,0.0012980504,0.0012216945
1710733129020,0.22013968,0.059820566,9.863813,-17.025002,32.287502,-158.475,0.00167983,0.0019088977,-6.1084726E-4
1710733129123,0.10289137,-0.033499517,9.719945,-16.331251,31.29375,-158.71875,-0.003206948,0.0037414394,-0.0012216945
1710733129225,0.20817557,-0.09571291,9.825528,-16.462502,31.968752,-158.32501,-0.018478129,-0.03840702,-0.025044737
1710733129330,0.8644072,1.1132607,9.985847,-17.1375,32.625,-140.60626,-0.17798562,-0.68407255,-0.5900785
1710733129432,3.2297122,-0.5673981,8.7266245,-13.70625,31.275002,-86.9625,-0.79494137,1.6335583,-0.6694886
1710733129535,-1.3597214,-2.5331018,11.573186,-7.65,26.531252,-58.575,-0.81326675,3.5839937,-0.8875611
1710733129638,-17.335701,-3.6487553,8.7266245,6.1312504,26.250002,-42.54375,-1.8138345,7.715917,-0.5949652
1710733129741,-8.784052,-3.112464,3.2847474,24.581251,29.437502,-23.53125,-0.86091286,3.438612,2.772712
1710733129842,-5.2956157,-0.86919284,2.3509483,36.018753,24.73125,-8.64375,-1.512076,0.8509866,2.42514
1710733129946,-4.4985065,1.0486546,2.5522444,40.425003,18.112501,-1.29375,-0.70392513,0.17355698,0.41354358
1710733130051,-7.4647093,2.1499512,0.16031912,41.625,17.081251,1.25625,0.67422265,0.34887013,-0.58396995
1710733130153,-10.165309,-0.27996024,-2.8920252,39.862503,19.837502,2.34375,-0.04718795,-0.7017872,-0.20219044
1710733130257,-10.074382,0.13878371,0.3711866,38.98125,21.88125,0.73125005,0.13484453,-0.20333578,-0.11850437
1710733130360,-10.258629,-0.78035927,0.25603202,39.225002,23.306252,-2.2875001,0.1293469,-0.7292753,-0.27304873
1710733130465,-10.153345,-0.1052842,1.9175483,38.15625,24.393751,-6.9,0.3345916,-0.43545774,0.0012216945
1710733130568,-8.961121,-1.3453646,-0.086141616,37.74375,23.400002,-10.837501,-0.924441,-0.2839676,-0.38605547
1710733130669,-10.40489,-0.63200426,6.0858455,37.068752,24.618752,-12.168751,-0.06490252,-0.8355627,-0.5467083
1710733130774,-7.75454,-0.18903299,4.8026943,33.9,26.812502,-15.187501,-0.15782766,-0.4531723,-1.056155
1710733130876,-9.61466,-3.2775688,6.8949184,30.112501,30.2625,-15.806251,1.0560021,0.41178742,-0.8515211
1710733130980,-10.033704,-3.004488,5.0994043,28.875002,30.337502,-17.7,1.3938007,2.7727885,1.209554
1710733131082,-9.183653,-0.43100718,0.021535404,36.206253,24.712502,-12.20625,0.77256906,2.1814883,0.34146363
1710733131187,-10.524531,-0.28265217,0.73489565,39.075,23.7,-4.7250004,0.3669665,2.4496503,-0.8881719
1710733131289,-8.690433,-1.7931215,-6.586244,37.48125,25.893751,4.70625,-0.8383115,1.6818153,-0.7537855
1710733131392,-8.175976,-1.5873387,-4.6492543,34.59375,27.993752,10.8,-0.4272113,1.8901142,-1.1935955
1710733131495,-5.408377,-3.8521454,-5.2573304,29.493752,30.431252,17.868752,0.69376975,0.6402443,-0.034818295
1710733131599,-8.522935,-3.2919257,-5.695516,26.00625,31.893751,19.0125,0.7640172,0.8650361,-0.14293826
1710733131699,-14.680565,0.8282157,-5.3964133,24.54375,33.73125,18.69375,1.0065236,1.4306806,-0.042759307
1710733131805,-0.62961143,-6.524031,-7.8693953,23.19375,35.0625,18.243752,0.6076403,0.18210883,-0.105065726
1710733131908,-7.565208,-6.076274,-9.839885,24.300001,34.3875,16.368752,-0.60985464,-0.6400916,-1.0017895
1710733132010,-5.705087,-3.045166,-6.2007008,27.13125,34.425003,12.95625,-1.3019446,-1.8734685,-0.004886778
1710733132113,-6.1504517,-2.2408783,-4.9462633,29.325,33.5625,10.35,0.40239564,2.3360326,-1.4550382
1710733132216,-9.957133,-2.0757737,-5.413163,27.675001,34.162502,11.625,0.12201674,-3.9736378,1.4007491
1710733132318,-5.638088,-0.5195416,0.5315057,34.875,27.712502,-0.61875004,-0.77905935,-1.6810516,1.1001359
1710733132422,-7.49103,-0.40947178,0.4429713,38.643753,22.612501,-8.55,-1.2115391,-1.527729,-0.05803049
1710733132525,-10.622637,-0.58654064,4.067499,37.537502,23.625,-8.85,0.40667155,1.5297142,-0.9510892
1710733132627,-8.518149,-0.73489565,0.53389853,36.018753,26.456251,-4.1625004,-0.4595862,1.0818869,-0.19302773
1710733132732,-11.290534,-0.6343971,1.9199411,36.768753,26.868752,-0.0,-0.07834116,0.22364645,0.99873525
1710733132835,-8.539685,-0.61046886,-7.359425,38.11875,24.187502,4.3125,0.9778137,2.5730414,1.0042329
1710733132938,-9.035298,-0.8883354,-3.342175,37.875,21.84375,12.975,-1.1186904,0.32565793,0.10750912
1710733133039,-6.3801622,-0.5985048,-6.2294145,36.131252,20.212502,17.681252,-0.4492018,1.0977689,-0.6462764
1710733133144,-6.049953,2.2815564,-0.27517462,32.287502,21.525002,24.187502,-0.036803547,0.119802415,0.44530764
1710733133246,-7.4647093,-1.4557334,-8.142476,29.7,22.3875,27.112501,2.0718412,1.7319047,0.15332267
1710733133349,-3.3182468,-2.7532415,-11.508579,28.125002,25.143751,25.800001,-1.0789853,-2.9302342,0.43981004
1710733133451,0.047856454,-3.2991042,1.0079765,33.80625,23.23125,17.775002,-0.54693735,-3.9101098,-2.0311434
1710733133556,-12.595221,-9.782158,-8.846265,32.025,31.781252,3.7125,-1.3709704,-2.0854325,-6.341969
1710733133658,-1.989632,-16.0358,-1.4365909,13.14375,44.175003,6.3375,-3.1443362,-0.48982313,-5.285203
1710733133762,1.2209377,-13.268202,-4.321438,-14.343751,40.40625,15.8625,-1.8486528,0.8265527,-7.263203
1710733133866,0.09332009,-6.619744,-3.8401814,-38.550003,18.65625,17.94375,-2.4026914,-1.018206,-0.59618694
1710733133969,0.0047856453,-6.0690956,-3.5910287,-40.912502,11.775001,18.91875,-0.1700446,1.914548,4.918695
1710733134073,5.003691,-9.849456,-2.7532415,-33.54375,28.612501,14.718751,1.8158962,0.80639476,3.5356603
1710733134174,3.1052856,-7.4096746,-7.325926,-23.8875,40.65,5.3625,-0.2848839,-0.22838052,1.22116
1710733134277,2.099702,-9.425628,-2.5354948,-17.681252,43.78125,3.73125,-0.0013744063,-1.4751961,-0.2987043
1710733134379,0.79710907,-8.0345,-4.108177,-20.025002,42.61875,5.5687504,0.2673984,3.046448,-2.0897849
1710733134479,2.5737798,-6.8518476,-11.929716,-26.962502,37.425003,2.15625,1.6674603,0.13018683,-1.7464887
1710733134585,-2.0685952,1.9510478,-3.4594233,-32.775,33.15,-3.35625,-0.80838,0.6903338,-0.09834641
1710733134686,0.0047856453,-8.365009,-1.2664014,-32.25,36.35625,-1.7437501,1.1372449,-2.0897086,3.3255289
1710733134790,-2.6982067,-13.684553,2.0685952,-14.793751,44.71875,-6.4500003,5.20984,2.047102,3.616903
1710733134892,0.2536392,-6.3179493,-0.66071814,3.05625,39.375,-25.44375,1.1696198,2.2114198,0.66643435
1710733135000,-2.2552354,-13.375878,2.9973094,15.056251,35.756252,-26.362501,1.4897038,2.4679756,-0.82708716
1710733135103,-3.4211383,-7.8957167,1.2903296,17.0625,33.9375,-27.956251,0.18676655,-3.3944783,-2.3805482
1710733135206,-4.5487556,-9.025727,0.95772725,-0.075,37.18125,-31.031252,-1.4577106,-4.24913,-1.8423917
1710733135308,-2.559423,-8.242975,3.5694933,-17.325,40.74375,-21.675001,-1.7411437,-6.633954,-0.211964
1710733135407,-4.941478,-8.652147,1.9031913,-26.456251,41.362503,-8.64375,0.45676103,-4.6706147,-1.3347013
1710733135511,1.3310076,-12.535399,-1.5921243,-35.475002,35.41875,3.99375,0.7524111,0.21631628,-0.6529957
1710733135613,-4.2759743,-11.367104,1.6040884,-35.193752,35.1375,2.04375,2.3552742,0.29389387,2.7140708
1710733135716,0.21535404,-7.9340014,1.8553349,-21.206251,41.456253,-4.4812503,2.7554557,-3.2662003,4.030523
1710733135816,0.5243273,-7.5676007,-0.27756742,-4.2937503,35.41875,-6.8250003,2.1536946,-1.8013886,1.4807701
1710733135921,-0.9290134,-9.401699,1.4389837,14.175,30.88125,3.2062502,-1.3911283,-1.683495,0.37689275
1710733136024,0.06699903,-5.762515,8.0201435,63.843754,39.825,-35.268753,3.849483,-0.9992698,0.7769977
1710733136126,-1.879263,-3.19382,8.661719,33.35625,40.0875,-63.600002,3.3351498,-1.0634087,0.84235835
1710733136228,0.38793638,0.11006984,4.1440697,1.5375,22.181252,-83.26875,0.7902836,1.8064281,0.1692047
1710733136329,0.15553348,0.05742774,9.861421,-8.6625,21.056252,-84.525,-0.016034741,0.0122933015,0.009162709
1710733136435,0.19621146,0.040677983,9.887741,-8.493751,21.54375,-84.80625,-1.5271181E-4,0.0012980504,0.004886778
1710733136540,0.17467605,-0.021535404,9.866206,-8.043751,22.0125,-84.39375,4.5813544E-4,6.8720314E-4,0.0036650836
1710733136643,0.17228323,0.033499517,9.880563,-8.700001,21.300001,-84.8625,-7.635591E-4,7.635591E-5,0.0036650836
1710733136745,0.1268196,0.148355,9.882956,-8.325001,21.768751,-84.450005,-1.5271181E-4,6.8720314E-4,0.0
1710733136851,0.086141616,0.0,9.868599,-8.493751,21.300001,-85.106255,0.0010689828,6.8720314E-4,-0.0018325418
1710733136951,0.078963146,0.04546363,9.873384,-8.681251,21.88125,-84.7125,0.0022906773,7.635591E-5,0.0018325418
1710733137056,0.15074782,0.07178468,9.875777,-8.55,21.54375,-84.58125,0.0022906773,6.8720314E-4,0.0030542363
1710733137159,0.17706887,0.06460621,9.866206,-8.887501,21.9375,-85.068756,-1.5271181E-4,-5.344914E-4,0.0030542363
1710733137262,0.148355,0.09571291,9.870992,-8.493751,21.75,-84.168755,-7.635591E-4,6.8720314E-4,-0.0018325418
1710733137364,0.12203395,0.033499517,9.861421,-8.75625,22.275002,-84.787506,-7.635591E-4,6.8720314E-4,0.0
1710733137466,0.1052842,0.0526421,9.868599,-8.34375,21.768751,-84.84375,-1.5271181E-4,6.8720314E-4,0.0012216945
1710733137571,0.12921242,0.09092726,9.868599,-9.243751,22.21875,-84.975006,-1.5271181E-4,6.8720314E-4,0.0018325418
1710733137678,0.1268196,0.059820566,9.87817,-7.9687505,21.35625,-84.506256,-1.5271181E-4,7.635591E-5,0.0018325418
1710733137784,0.14117654,0.059820566,9.87817,-8.34375,21.9375,-84.9,-1.5271181E-4,-5.344914E-4,0.0012216945
1710733137880,0.1363909,0.059820566,9.880563,-8.38125,21.768751,-84.43125,4.5813544E-4,7.635591E-5,0.0018325418
1710733137986,0.1363909,0.05742774,9.880563,-8.56875,21.956251,-84.3,0.0010689828,0.0019088977,0.002443389
1710733138090,0.148355,0.078963146,9.870992,-8.625,21.75,-84.506256,-1.5271181E-4,0.0012980504,0.0018325418
1710733138193,0.13399807,0.06699903,9.851849,-8.83125,21.712502,-83.850006,4.5813544E-4,7.635591E-5,0.0
1710733138294,0.13878371,0.0526421,9.875777,-8.681251,21.975,-85.05,0.0010689828,0.0012980504,0.002443389
1710733138398,0.12921242,0.07178468,9.887741,-8.775001,21.54375,-84.637505,4.5813544E-4,0.0012980504,6.1084726E-4
1710733138503,-0.033499517,0.09332009,9.921241,-8.3625,21.69375,-84.95625,0.00167983,0.0031305922,-6.1084726E-4
1710733138605,0.086141616,0.19142582,10.136595,-9.09375,21.65625,-84.787506,-0.0019852535,0.004352287,0.021379653
1710733138708,0.23928227,0.19142582,9.945169,-8.75625,21.2625,-85.200005,0.0029015245,6.8720314E-4,0.01099525
1710733138813,0.050249275,-0.0741775,9.983455,-8.56875,21.69375,-84.20625,0.00167983,7.635591E-5,6.1084726E-4
1710733138912,0.062213387,0.0023928226,9.87817,-8.606251,22.25625,-83.568756,4.5813544E-4,0.0012980504,0.00671932
1710733139017,0.16031912,0.04546363,9.868599,-9.4875,21.09375,-81.8625,-0.0013744063,6.8720314E-4,0.00671932
1710733139120,0.20817557,0.15553348,9.866206,-9.431251,21.900002,-83.26875,0.0010689828,-5.344914E-4,0.0012216945
1710733139224,0.124426775,0.09092726,9.892527,-9.356251,22.143751,-83.418755,0.0010689828,0.0012980504,-0.0030542363
1710733139326,0.08853444,-0.043070808,9.87817,-9.375,21.6375,-83.45625,-7.635591E-4,6.8720314E-4,-6.1084726E-4
1710733139428,0.11964113,0.05503492,9.87817,-9.1125,21.69375,-83.55,-7.635591E-4,0.0012980504,0.004886778
1710733139533,0.16271193,0.09571291,9.87817,-9.637501,21.4125,-84.05625,0.0010689828,6.8720314E-4,0.0012216945
1710733139636,0.148355,0.09810573,9.87817,-9.46875,21.2625,-83.71875,-1.5271181E-4,0.0012980504,0.0
1710733139737,0.10289137,0.06460621,9.887741,-9.3,21.91875,-83.15625,-1.5271181E-4,-5.344914E-4,-0.0018325418
1710733139842,0.10767702,0.009571291,9.885348,-9.46875,22.275002,-83.700005,-1.5271181E-4,-5.344914E-4,0.002443389
1710733139939,0.14356937,0.069391854,9.880563,-8.56875,22.06875,-83.381256,4.5813544E-4,0.0012980504,0.0036650836
1710733140048,0.15074782,0.09810573,9.882956,-9.150001,21.956251,-84.037506,4.5813544E-4,-5.344914E-4,0.002443389
1710733140151,0.12921242,0.06699903,9.873384,-9.375,22.10625,-83.568756,0.0022906773,6.8720314E-4,0.0012216945
1710733140253,0.13160525,0.0526421,9.873384,-8.7375,22.0125,-83.475006,4.5813544E-4,7.635591E-5,0.0
1710733140356,0.11964113,0.038285162,9.868599,-9.20625,21.862501,-83.4375,4.5813544E-4,7.635591E-5,6.1084726E-4
1710733140458,0.14596218,0.062213387,9.890134,-9.20625,21.806252,-83.9625,-1.5271181E-4,6.8720314E-4,0.002443389
1710733140560,0.1363909,0.10049855,9.890134,-9.225,21.862501,-83.287506,4.5813544E-4,0.0012980504,0.0012216945
1710733140663,0.13160525,0.06699903,9.880563,-9.84375,22.1625,-83.568756,0.00167983,7.635591E-5,6.1084726E-4
1710733140769,0.124426775,0.043070808,9.870992,-9.356251,21.54375,-83.34375,0.0010689828,0.0012980504,0.0012216945
1710733140873,0.11964113,0.047856454,9.870992,-9.28125,22.3125,-82.950005,0.0010689828,0.0012980504,0.0030542363
1710733140976,0.13399807,0.076570325,9.875777,-9.675,21.825,-83.418755,4.5813544E-4,0.002519745,0.0018325418
1710733141080,0.13878371,0.08135597,9.880563,-9.918751,21.1875,-83.568756,-1.5271181E-4,-5.344914E-4,0.002443389
1710733141183,0.14117654,0.069391854,9.870992,-9.731251,22.3875,-82.912506,0.0010689828,-5.344914E-4,6.1084726E-4
1710733141287,0.13160525,0.06699903,9.87817,-9.3,22.21875,-83.193756,4.5813544E-4,0.0019088977,0.0
1710733141390,0.12921242,0.06460621,9.866206,-9.618751,21.5625,-83.662506,-0.0013744063,-5.344914E-4,0.0012216945
1710733141493,0.13399807,0.062213387,9.885348,-9.69375,21.84375,-83.15625,4.5813544E-4,0.0019088977,6.1084726E-4
1710733141595,0.13878371,0.07178468,9.882956,-9.46875,22.237501,-83.45625,-1.5271181E-4,0.0012980504,0.0012216945
1710733141697,0.12921242,0.069391854,9.875777,-9.337501,21.618752,-83.887505,-7.635591E-4,7.635591E-5,0.0018325418
1710733141798,0.12921242,0.06699903,9.87817,-9.150001,21.46875,-83.193756,-7.635591E-4,7.635591E-5,0.0012216945
1710733141903,0.14356937,0.05742774,9.882956,-9.88125,21.69375,-83.043755,4.5813544E-4,-0.0017561859,0.002443389
1710733142004,0.08135597,0.06699903,9.875777,-9.20625,21.65625,-83.5875,0.0010689828,7.635591E-5,0.0030542363
1710733142106,0.13878371,0.050249275,9.87817,-9.450001,21.581251,-83.55,4.5813544E-4,7.635591E-5,0.0030542363
1710733142209,0.16031912,0.09571291,9.880563,-8.85,21.50625,-83.775,0.00167983,-0.0011453386,0.0012216945
1710733142313,0.14356937,0.0526421,9.894919,-9.50625,22.181252,-83.100006,0.00167983,6.8720314E-4,0.002443389
1710733142415,0.12203395,0.069391854,9.890134,-9.46875,21.712502,-83.850006,0.00167983,-5.344914E-4,0.0012216945
1710733142520,0.13160525,0.07178468,9.892527,-9.150001,21.975,-83.2125,-7.635591E-4,0.0012980504,0.0030542363
1710733142622,0.11724831,0.047856454,9.885348,-9.075001,21.768751,-83.71875,-7.635591E-4,-0.0011453386,0.0012216945
1710733142724,0.124426775,0.0526421,9.870992,-9.01875,21.50625,-83.25,0.00167983,-0.0011453386,0.0012216945
1710733142828,0.148355,0.062213387,9.880563,-9.0375,21.993752,-83.8125,-1.5271181E-4,0.0012980504,0.0018325418
1710733142930,0.11964113,0.040677983,9.892527,-9.7875,21.825,-83.606255,-7.635591E-4,7.635591E-5,0.0012216945
1710733143033,0.13160525,0.06699903,9.87817,-9.84375,22.5,-83.512505,-1.5271181E-4,0.0012980504,6.1084726E-4
1710733143136,0.13399807,0.076570325,9.890134,-9.337501,21.54375,-83.943756,-1.5271181E-4,-5.344914E-4,-6.1084726E-4
1710733143239,0.13399807,0.069391854,9.885348,-9.243751,22.21875,-83.512505,-7.635591E-4,0.0012980504,0.0012216945
1710733143342,0.1363909,0.076570325,9.870992,-9.225,22.368752,-83.475006,-7.635591E-4,-5.344914E-4,0.0012216945
1710733143446,0.12203395,0.059820566,9.875777,-9.618751,21.84375,-83.418755,-1.5271181E-4,6.8720314E-4,6.1084726E-4
1710733143549,0.14117654,0.076570325,9.894919,-9.675,22.35,-83.512505,0.00167983,0.0019088977,0.0030542363
1710733143651,0.12921242,0.062213387,9.882956,-9.356251,21.16875,-83.11875,-1.5271181E-4,7.635591E-5,6.1084726E-4
1710733143755,0.12921242,0.069391854,9.880563,-9.4875,21.862501,-83.11875,-1.5271181E-4,-5.344914E-4,0.0012216945
1710733143857,0.12203395,0.050249275,9.887741,-9.450001,22.050001,-83.53125,4.5813544E-4,7.635591E-5,0.0
1710733143962,0.14356937,0.069391854,9.880563,-9.46875,22.03125,-83.45625,-1.5271181E-4,0.0019088977,0.0018325418
1710733144061,0.14596218,0.06460621,9.887741,-9.525001,21.956251,-84.0,-7.635591E-4,7.635591E-5,0.0
1710733144167,0.12921242,0.0741775,9.882956,-9.3,22.44375,-83.512505,-1.5271181E-4,7.635591E-5,0.0018325418
1710733144268,0.13399807,0.06699903,9.861421,-9.84375,21.7875,-83.4,-0.0013744063,6.8720314E-4,0.0018325418
1710733144370,0.14117654,0.062213387,9.875777,-9.731251,21.806252,-84.09375,0.0010689828,7.635591E-5,0.0012216945
1710733144475,0.11724831,0.062213387,9.890134,-8.55,22.2,-83.4,0.0010689828,-5.344914E-4,6.1084726E-4
1710733144577,0.124426775,0.06460621,9.875777,-8.493751,21.69375,-82.950005,-7.635591E-4,6.8720314E-4,0.0012216945
1710733144682,0.12921242,0.062213387,9.887741,-8.90625,21.862501,-83.15625,-0.0013744063,-5.344914E-4,0.0018325418
1710733144785,0.14117654,0.059820566,9.880563,-8.775001,21.54375,-84.1875,0.00167983,7.635591E-5,0.0012216945
1710733144891,0.15553348,0.06699903,9.899706,-9.76875,22.1625,-83.512505,-1.5271181E-4,7.635591E-5,-6.1084726E-4
1710733144992,0.11964113,0.069391854,9.890134,-8.8125,22.40625,-83.606255,-1.5271181E-4,-0.0017561859,-6.1084726E-4
1710733145098,0.14356937,0.06460621,9.899706,-9.075001,21.9375,-83.30625,0.0010689828,0.0012980504,0.0012216945
1710733145201,0.12921242,0.069391854,9.885348,-8.64375,22.03125,-84.1125,-1.5271181E-4,0.0012980504,6.1084726E-4
1710733145303,0.17467605,0.078963146,9.868599,-8.868751,21.5625,-83.568756,-1.5271181E-4,6.8720314E-4,0.004886778
1710733145406,0.014356935,-0.0047856453,9.875777,-9.056251,21.54375,-83.568756,0.0010689828,6.8720314E-4,-0.005497625
1710733145508,0.21296121,0.062213387,9.887741,-9.075001,21.300001,-83.45625,-1.5271181E-4,7.635591E-5,0.0030542363
1710733145612,0.18664017,0.069391854,9.873384,-8.38125,21.45,-83.287506,4.5813544E-4,7.635591E-5,-6.1084726E-4
1710733145714,0.18903299,0.023928227,9.894919,-8.4375,21.825,-83.137505,-7.635591E-4,-5.344914E-4,-0.0012216945
1710733145819,0.12921242,0.07178468,9.899706,-8.887501,21.65625,-84.4875,-7.635591E-4,0.0012980504,-0.0012216945
1710733145921,0.11724831,0.02871387,9.882956,-9.01875,21.393751,-83.850006,0.00167983,6.8720314E-4,-6.1084726E-4
1710733146024,0.11964113,0.09332009,9.880563,-8.925,21.862501,-84.05625,-7.635591E-4,6.8720314E-4,0.0
1710733146127,0.11724831,0.10767702,9.890134,-9.075001,21.375,-83.287506,4.5813544E-4,-5.344914E-4,0.0018325418
1710733146229,0.124426775,0.0526421,9.880563,-8.887501,21.056252,-84.05625,4.5813544E-4,6.8720314E-4,0.0012216945
1710733146333,0.124426775,0.059820566,9.899706,-8.83125,21.46875,-83.287506,0.0010689828,0.0012980504,0.004275931
1710733146436,0.13399807,0.050249275,9.882956,-8.90625,21.768751,-83.83125,0.0010689828,7.635591E-5,0.0018325418
1710733146538,0.148355,0.043070808,9.899706,-8.4375,21.1875,-83.8125,4.5813544E-4,-0.0011453386,6.1084726E-4
1710733146642,0.15314065,0.06460621,9.892527,-8.306251,21.7875,-83.11875,0.0010689828,7.635591E-5,0.0
1710733146745,0.14117654,0.06460621,9.885348,-8.2875,21.112501,-83.5875,-1.5271181E-4,-5.344914E-4,-0.0012216945
1710733146848,0.11724831,0.0526421,9.885348,-8.306251,21.7875,-82.6125,-7.635591E-4,-5.344914E-4,0.0
1710733146950,0.11485548,0.06699903,9.880563,-8.306251,21.768751,-83.15625,-7.635591E-4,-5.344914E-4,0.0012216945
1710733147054,0.124426775,0.07178468,9.892527,-9.4875,21.69375,-83.64375,0.0010689828,7.635591E-5,0.0018325418
1710733147154,0.14117654,0.0741775,9.885348,-9.09375,21.45,-83.887505,0.0010689828,-5.344914E-4,-6.1084726E-4
1710733147260,0.148355,0.05742774,9.890134,-8.962501,21.975,-83.606255,4.5813544E-4,6.8720314E-4,0.0
1710733147363,0.14596218,0.05503492,9.868599,-8.64375,21.09375,-83.55,-7.635591E-4,-5.344914E-4,-6.1084726E-4
1710733147466,0.13160525,0.06699903,9.890134,-7.3125005,21.337502,-83.11875,0.0010689828,6.8720314E-4,0.0012216945
1710733147572,0.148355,0.0741775,9.880563,-8.7375,21.46875,-83.86875,0.0010689828,-5.344914E-4,0.0018325418
1710733147676,0.13399807,0.078963146,9.880563,-8.043751,21.54375,-83.175,0.0010689828,7.635591E-5,0.0012216945
1710733147778,0.14117654,0.078963146,9.899706,-8.587501,21.50625,-83.418755,-1.5271181E-4,6.8720314E-4,0.0012216945
1710733147879,0.11724831,0.06699903,9.885348,-9.431251,21.956251,-84.075005,4.5813544E-4,0.0012980504,6.1084726E-4
1710733147982,0.1363909,0.0741775,9.875777,-9.262501,22.06875,-83.025,4.5813544E-4,-0.0017561859,0.0012216945
1710733148084,0.148355,0.06460621,9.87817,-9.168751,21.337502,-83.606255,-0.0013744063,7.635591E-5,6.1084726E-4
1710733148188,0.124426775,0.047856454,9.875777,-9.056251,21.7875,-84.05625,0.0022906773,0.0019088977,0.0012216945
1710733148290,0.11724831,0.06460621,9.887741,-9.20625,21.431252,-83.475006,-7.635591E-4,7.635591E-5,0.0
1710733148395,0.1268196,0.06699903,9.880563,-8.85,22.125,-83.418755,0.0010689828,-5.344914E-4,-6.1084726E-4
1710733148499,0.13878371,0.06699903,9.880563,-8.55,21.206251,-84.28125,0.0010689828,-0.0011453386,0.0
1710733148601,0.13399807,0.06699903,9.894919,-9.150001,21.6,-83.756256,0.0010689828,0.0019088977,0.0018325418
1710733148702,0.12921242,0.06699903,9.875777,-8.85,21.487501,-83.943756,-1.5271181E-4,7.635591E-5,0.0
1710733148806,0.14117654,0.06460621,9.880563,-8.53125,21.45,-83.49375,4.5813544E-4,-5.344914E-4,0.0018325418
1710733148909,0.14117654,0.043070808,9.873384,-8.55,21.54375,-84.0,0.0010689828,-5.344914E-4,0.0018325418
1710733149011,0.1363909,0.050249275,9.873384,-8.38125,21.206251,-83.606255,-1.5271181E-4,0.0019088977,0.0
1710733149114,0.15314065,0.06460621,9.887741,-8.625,21.487501,-83.568756,-1.5271181E-4,-5.344914E-4,-6.1084726E-4
1710733149217,0.1363909,0.0526421,9.873384,-8.400001,21.393751,-83.90625,4.5813544E-4,7.635591E-5,0.0012216945
1710733149319,0.13160525,0.08135597,9.894919,-8.118751,22.237501,-83.4,4.5813544E-4,0.0012980504,6.1084726E-4
1710733149427,0.1268196,0.069391854,9.882956,-8.512501,21.806252,-83.26875,0.0010689828,7.635591E-5,6.1084726E-4
1710733149529,0.12921242,0.0526421,9.890134,-8.38125,21.75,-83.7375,-7.635591E-4,6.8720314E-4,0.0
1710733149631,0.1363909,0.05742774,9.890134,-9.0,21.88125,-83.512505,-1.5271181E-4,-0.0011453386,0.0
1710733149733,0.13160525,0.078963146,9.873384,-8.55,21.35625,-84.131256,4.5813544E-4,0.0012980504,0.0018325418
1710733149834,0.1363909,0.06699903,9.873384,-8.8125,21.487501,-83.381256,-7.635591E-4,7.635591E-5,0.0
1710733149940,0.13160525,0.06699903,9.887741,-9.075001,21.5625,-83.83125,4.5813544E-4,7.635591E-5,6.1084726E-4
1710733150044,0.12921242,0.069391854,9.863813,-8.34375,21.618752,-83.943756,0.0010689828,-0.0011453386,6.1084726E-4
1710733150145,0.1363909,0.059820566,9.885348,-9.09375,21.28125,-83.512505,4.5813544E-4,0.0012980504,0.0018325418
1710733150252,0.14117654,0.08135597,9.887741,-8.981251,21.45,-83.08125,-1.5271181E-4,-5.344914E-4,0.0012216945
1710733150352,0.12921242,0.06460621,9.875777,-9.225,21.337502,-83.025,-7.635591E-4,7.635591E-5,0.0012216945
1710733150456,0.14117654,0.05742774,9.902099,-8.587501,21.993752,-83.793755,4.5813544E-4,-5.344914E-4,0.0
1710733150559,0.14356937,0.07178468,9.897313,-8.681251,21.375,-83.700005,4.5813544E-4,0.0012980504,0.0018325418
1710733150661,0.1363909,0.05742774,9.882956,-8.53125,21.712502,-83.64375,-7.635591E-4,6.8720314E-4,6.1084726E-4
1710733150763,0.1268196,0.0741775,9.887741,-9.225,21.206251,-83.30625,-7.635591E-4,7.635591E-5,0.0
1710733150866,0.14356937,0.076570325,9.87817,-8.231251,21.825,-83.793755,4.5813544E-4,6.8720314E-4,0.0018325418
1710733150970,0.14117654,0.07178468,9.887741,-8.681251,21.618752,-83.325005,-1.5271181E-4,-0.0011453386,0.0
1710733151073,0.14596218,0.062213387,9.880563,-9.1125,22.0125,-83.8125,4.5813544E-4,6.8720314E-4,0.0012216945
1710733151176,0.13399807,0.05503492,9.880563,-8.962501,22.03125,-83.3625,-1.5271181E-4,-5.344914E-4,6.1084726E-4
1710733151277,0.14117654,0.0526421,9.870992,-8.83125,21.13125,-83.700005,-1.5271181E-4,-5.344914E-4,0.0018325418
1710733151380,0.13878371,0.076570325,9.892527,-8.85,21.28125,-83.4,-0.0013744063,-5.344914E-4,0.0012216945
1710733151483,0.12921242,0.06699903,9.887741,-8.85,21.65625,-83.137505,4.5813544E-4,-0.0011453386,0.0018325418
1710733151588,0.124426775,0.0741775,9.894919,-8.868751,21.825,-83.0625,-1.5271181E-4,6.8720314E-4,6.1084726E-4
1710733151689,0.13878371,0.06460621,9.892527,-7.9125004,21.2625,-83.30625,4.5813544E-4,7.635591E-5,0.0012216945
1710733151794,0.14117654,0.062213387,9.87817,-8.418751,21.5625,-83.475006,4.5813544E-4,0.0012980504,0.0018325418
1710733151895,0.14356937,0.05503492,9.892527,-9.168751,21.712502,-84.375,-1.5271181E-4,7.635591E-5,6.1084726E-4
1710733151999,0.14117654,0.069391854,9.890134,-8.8125,22.050001,-83.625,4.5813544E-4,0.0012980504,6.1084726E-4
1710733152107,0.14356937,0.07178468,9.894919,-8.868751,21.825,-83.11875,4.5813544E-4,7.635591E-5,6.1084726E-4
1710733152210,0.1363909,0.06699903,9.87817,-8.45625,22.10625,-83.475006,0.00167983,6.8720314E-4,6.1084726E-4
1710733152311,0.13399807,0.06460621,9.887741,-8.700001,21.45,-83.568756,-1.5271181E-4,6.8720314E-4,0.0
1710733152417,0.14117654,0.05503492,9.904491,-9.262501,21.768751,-83.9625,0.0010689828,7.635591E-5,6.1084726E-4
1710733152520,0.15792629,0.06699903,9.87817,-9.01875,21.2625,-83.925,4.5813544E-4,6.8720314E-4,0.0018325418
1710733152621,0.13878371,0.059820566,9.890134,-8.887501,21.73125,-83.793755,-1.5271181E-4,-5.344914E-4,0.0012216945
1710733152726,0.13878371,0.08135597,9.885348,-9.13125,21.2625,-83.568756,-7.635591E-4,6.8720314E-4,0.0
1710733152827,0.14117654,0.06699903,9.890134,-8.26875,21.431252,-83.381256,-1.5271181E-4,0.0012980504,0.0012216945
1710733152934,0.14117654,0.059820566,9.887741,-8.3625,21.0,-83.3625,-7.635591E-4,-5.344914E-4,6.1084726E-4
1710733153035,0.13399807,0.047856454,9.892527,-9.01875,21.88125,-83.5875,-0.0013744063,-0.0011453386,0.0
1710733153138,0.1363909,0.069391854,9.880563,-8.868751,21.825,-84.15,-1.5271181E-4,6.8720314E-4,0.002443389
1710733153241,0.13399807,0.05742774,9.899706,-9.1125,21.28125,-83.756256,4.5813544E-4,0.0012980504,6.1084726E-4
1710733153343,0.13160525,0.0741775,9.866206,-8.118751,21.375,-83.64375,-7.635591E-4,-0.0017561859,0.0012216945
1710733153449,0.13160525,0.06460621,9.894919,-8.85,21.431252,-84.168755,-7.635591E-4,-0.0011453386,-6.1084726E-4
1710733153550,0.13399807,0.069391854,9.892527,-8.325001,21.54375,-83.7375,-1.5271181E-4,-5.344914E-4,6.1084726E-4
1710733153653,0.1363909,0.050249275,9.875777,-8.4375,21.7875,-83.3625,-7.635591E-4,0.0012980504,0.0018325418
1710733153758,0.13399807,0.05503492,9.894919,-8.325001,21.4125,-83.512505,-7.635591E-4,-0.0011453386,0.0012216945
1710733153863,0.14596218,0.062213387,9.885348,-8.475,21.075,-84.1125,4.5813544E-4,7.635591E-5,6.1084726E-4
1710733153965,0.13160525,0.078963146,9.890134,-8.962501,21.618752,-83.756256,4.5813544E-4,0.0012980504,0.0012216945
1710733154067,0.13399807,0.06699903,9.899706,-8.700001,21.375,-83.381256,4.5813544E-4,-5.344914E-4,0.0012216945
1710733154170,0.12921242,0.083748795,9.892527,-8.868751,21.525002,-83.850006,4.5813544E-4,0.0012980504,0.0018325418
1710733154274,0.14117654,0.0741775,9.890134,-8.8125,21.46875,-83.325005,4.5813544E-4,7.635591E-5,0.0
1710733154375,0.13399807,0.06460621,9.882956,-8.681251,21.375,-83.55,-0.0019852535,7.635591E-5,0.0012216945
1710733154479,0.124426775,0.07178468,9.899706,-8.887501,21.4125,-83.2125,-7.635591E-4,0.0012980504,6.1084726E-4
1710733154581,0.1363909,0.05742774,9.890134,-8.56875,21.806252,-82.8375,-1.5271181E-4,-0.0011453386,0.0
1710733154685,0.1363909,0.06699903,9.870992,-9.01875,21.337502,-83.793755,4.5813544E-4,-5.344914E-4,-6.1084726E-4
1710733154790,0.14596218,0.05742774,9.897313,-8.137501,21.9375,-83.231255,0.0010689828,7.635591E-5,0.002443389
1710733154893,0.15074782,0.05503492,9.890134,-8.71875,21.16875,-83.7375,-0.0025961008,6.8720314E-4,0.0018325418
1710733154996,0.14596218,0.06460621,9.897313,-8.71875,21.0,-83.4375,4.5813544E-4,7.635591E-5,0.0012216945
1710733155102,0.15314065,0.069391854,9.887741,-8.925,21.69375,-84.28125,4.5813544E-4,6.8720314E-4,6.1084726E-4
1710733155203,0.1363909,0.076570325,9.894919,-8.625,21.73125,-83.49375,-1.5271181E-4,6.8720314E-4,-0.0012216945
1710733155305,0.13160525,0.069391854,9.887741,-8.681251,22.050001,-83.90625,-7.635591E-4,7.635591E-5,0.0012216945
1710733155409,0.11964113,0.059820566,9.87817,-9.13125,21.4125,-83.287506,-1.5271181E-4,6.8720314E-4,0.0012216945
1710733155511,0.13160525,0.06699903,9.904491,-8.08125,21.73125,-83.943756,-0.0013744063,-0.0011453386,0.0012216945
1710733155617,0.1268196,0.05503492,9.887741,-8.55,21.525002,-83.0625,0.0010689828,-5.344914E-4,6.1084726E-4
1710733155721,0.14596218,0.050249275,9.892527,-8.868751,21.431252,-83.625,4.5813544E-4,6.8720314E-4,0.0012216945
1710733155824,0.1268196,0.059820566,9.870992,-8.6625,21.91875,-83.55,-1.5271181E-4,7.635591E-5,0.0018325418
1710733155926,0.12921242,0.059820566,9.890134,-8.94375,21.6,-83.4375,-0.0013744063,-5.344914E-4,0.0012216945
1710733156029,0.13160525,0.062213387,9.880563,-8.925,21.393751,-83.71875,-7.635591E-4,7.635591E-5,-0.0012216945
1710733156134,0.14356937,0.07178468,9.890134,-8.793751,21.300001,-83.775,-0.0013744063,-5.344914E-4,0.0018325418
1710733156237,0.15074782,0.062213387,9.882956,-9.09375,21.581251,-83.381256,-1.5271181E-4,7.635591E-5,0.0
1710733156339,0.13160525,0.06460621,9.899706,-8.606251,21.581251,-83.68125,-0.0019852535,-5.344914E-4,0.0012216945
1710733156444,0.13160525,0.069391854,9.892527,-8.587501,21.16875,-83.381256,0.0010689828,-5.344914E-4,0.0
1710733156547,0.14117654,0.059820566,9.885348,-8.64375,21.13125,-83.662506,4.5813544E-4,0.0012980504,0.002443389
1710733156649,0.1268196,0.050249275,9.887741,-7.89375,21.618752,-82.856255,4.5813544E-4,7.635591E-5,6.1084726E-4
1710733156752,0.13160525,0.062213387,9.899706,-8.231251,21.393751,-83.3625,-7.635591E-4,7.635591E-5,0.0
1710733156856,0.1363909,0.06460621,9.885348,-8.025001,21.4125,-82.950005,4.5813544E-4,6.8720314E-4,0.0012216945
1710733156959,0.1363909,0.05742774,9.885348,-8.19375,20.925001,-83.0625,-7.635591E-4,7.635591E-5,0.0012216945
1710733157061,0.13399807,0.04546363,9.892527,-9.09375,21.54375,-83.68125,-7.635591E-4,7.635591E-5,0.0018325418
1710733157164,0.13878371,0.05742774,9.892527,-9.0,21.206251,-83.381256,0.0010689828,-5.344914E-4,0.0018325418
1710733157267,0.148355,0.059820566,9.885348,-8.7375,21.46875,-83.08125,0.0010689828,7.635591E-5,0.002443389
1710733157370,0.13399807,0.06460621,9.880563,-9.0,22.125,-83.45625,-7.635591E-4,0.0012980504,6.1084726E-4
1710733157473,0.14117654,0.059820566,9.902099,-9.4875,21.2625,-83.662506,0.0010689828,0.0019088977,0.0
1710733157576,0.13160525,0.05742774,9.885348,-8.2875,21.73125,-83.45625,4.5813544E-4,7.635591E-5,6.1084726E-4
1710733157678,0.124426775,0.083748795,9.887741,-8.4375,21.73125,-83.756256,4.5813544E-4,7.635591E-5,0.0
1710733157782,0.13160525,0.0741775,9.880563,-8.700001,21.4125,-83.700005,-1.5271181E-4,-0.0011453386,0.0018325418
1710733157886,0.13160525,0.06460621,9.885348,-8.868751,21.393751,-83.287506,0.0010689828,7.635591E-5,0.0018325418
1710733157988,0.124426775,0.062213387,9.902099,-9.28125,21.056252,-83.71875,0.0010689828,-0.0011453386,0.0
1710733158090,0.124426775,0.047856454,9.892527,-8.6625,21.712502,-83.625,0.0022906773,7.635591E-5,-6.1084726E-4
1710733158195,0.14117654,0.06699903,9.880563,-8.775001,21.112501,-83.5875,-1.5271181E-4,0.0019088977,6.1084726E-4
1710733158297,0.1268196,0.0526421,9.890134,-9.168751,21.431252,-83.49375,0.0010689828,6.8720314E-4,0.0012216945
1710733158398,0.14596218,0.07178468,9.890134,-8.512501,20.925001,-83.418755,-1.5271181E-4,7.635591E-5,0.0018325418
1710733158502,0.11964113,0.0741775,9.887741,-9.056251,21.6375,-83.64375,0.0010689828,-5.344914E-4,0.0
1710733158605,0.14356937,0.05503492,9.897313,-8.606251,21.54375,-84.1125,-1.5271181E-4,6.8720314E-4,6.1084726E-4
1710733158708,0.13399807,0.05503492,9.885348,-7.93125,21.1875,-83.45625,-0.0013744063,-0.0011453386,0.0
1710733158813,0.13878371,0.06460621,9.887741,-8.606251,20.775002,-83.287506,-0.0013744063,6.8720314E-4,0.0
1710733158914,0.11964113,0.06699903,9.890134,-8.775001,22.0125,-82.762505,-1.5271181E-4,7.635591E-5,6.1084726E-4
1710733159019,0.14117654,0.0526421,9.890134,-8.681251,21.375,-83.850006,4.5813544E-4,6.8720314E-4,0.0012216945
1710733159122,0.14117654,0.0526421,9.887741,-9.375,21.487501,-83.53125,4.5813544E-4,-5.344914E-4,6.1084726E-4
1710733159225,0.124426775,0.050249275,9.890134,-8.925,21.31875,-84.01875,-1.5271181E-4,6.8720314E-4,-6.1084726E-4
1710733159326,0.14356937,0.0526421,9.899706,-8.94375,21.73125,-83.71875,-1.5271181E-4,-0.0017561859,0.0018325418
1710733159434,0.13160525,0.062213387,9.904491,-8.868751,21.4125,-83.3625,4.5813544E-4,7.635591E-5,0.0012216945
1710733159527,0.13878371,0.069391854,9.892527,-8.25,21.675001,-84.01875,4.5813544E-4,0.0019088977,0.0012216945
1710733159635,0.14596218,0.06699903,9.882956,-9.1125,21.825,-83.700005,0.0010689828,7.635591E-5,0.0
1710733159737,0.14596218,0.047856454,9.892527,-9.0375,21.825,-83.30625,0.0010689828,-5.344914E-4,0.0
1710733159841,0.1363909,0.062213387,9.887741,-8.606251,21.525002,-83.662506,-1.5271181E-4,-0.0011453386,0.0
1710733159944,0.11964113,0.086141616,9.875777,-9.056251,21.393751,-82.818756,-7.635591E-4,-5.344914E-4,6.1084726E-4
1710733160047,0.14117654,0.07178468,9.894919,-8.56875,21.581251,-83.64375,0.0010689828,6.8720314E-4,6.1084726E-4
1710733160149,0.14117654,0.06460621,9.885348,-8.962501,21.206251,-83.45625,4.5813544E-4,6.8720314E-4,6.1084726E-4
1710733160254,0.14596218,0.0526421,9.902099,-8.85,21.13125,-83.3625,-7.635591E-4,6.8720314E-4,0.0018325418
1710733160357,0.1268196,0.062213387,9.885348,-8.400001,21.6,-83.5875,-1.5271181E-4,6.8720314E-4,-0.0012216945
1710733160460,0.12921242,0.06460621,9.873384,-8.418751,21.300001,-83.775,-1.5271181E-4,7.635591E-5,0.0018325418
1710733160561,0.1363909,0.059820566,9.880563,-9.150001,21.6,-83.3625,-1.5271181E-4,0.0019088977,0.0030542363
1710733160665,0.13399807,0.069391854,9.887741,-8.25,21.9375,-83.71875,4.5813544E-4,6.8720314E-4,0.002443389
1710733160770,0.1363909,0.050249275,9.880563,-9.150001,21.50625,-82.70625,-0.0013744063,7.635591E-5,0.0018325418
1710733160873,0.14596218,0.0526421,9.906884,-9.3,21.375,-83.3625,0.0010689828,0.0012980504,6.1084726E-4
1710733160976,0.13878371,0.059820566,9.880563,-8.793751,22.2,-83.8125,4.5813544E-4,7.635591E-5,-0.0012216945
1710733161081,0.11485548,0.0526421,9.897313,-8.793751,21.45,-83.568756,4.5813544E-4,6.8720314E-4,6.1084726E-4
1710733161184,0.11964113,0.069391854,9.899706,-9.262501,20.831251,-83.625,4.5813544E-4,-0.0011453386,0.0012216945
1710733161286,0.148355,0.05742774,9.892527,-8.64375,21.28125,-83.34375,-1.5271181E-4,7.635591E-5,0.0012216945
1710733161388,0.13878371,0.0526421,9.875777,-8.7375,21.618752,-83.175,4.5813544E-4,6.8720314E-4,6.1084726E-4
1710733161490,0.14596218,0.0526421,9.892527,-9.20625,22.0125,-82.78125,-1.5271181E-4,6.8720314E-4,0.0012216945
1710733161596,0.124426775,0.062213387,9.882956,-8.587501,21.5625,-83.193756,0.00167983,-5.344914E-4,0.0012216945
1710733161700,0.13878371,0.047856454,9.887741,-8.94375,21.7875,-83.793755,-1.5271181E-4,7.635591E-5,0.0018325418
1710733161801,0.13878371,0.069391854,9.887741,-9.0375,21.487501,-83.193756,4.5813544E-4,6.8720314E-4,0.0
1710733161902,0.124426775,0.06460621,9.899706,-8.981251,21.84375,-83.25,4.5813544E-4,-5.344914E-4,0.0012216945
1710733162008,0.11964113,0.062213387,9.882956,-8.981251,21.35625,-83.53125,4.5813544E-4,7.635591E-5,6.1084726E-4
1710733162110,0.13878371,0.078963146,9.892527,-9.075001,22.03125,-83.11875,-1.5271181E-4,6.8720314E-4,0.0
1710733162213,0.15074782,0.06460621,9.892527,-8.4375,20.775002,-83.26875,4.5813544E-4,6.8720314E-4,0.0018325418
1710733162317,0.13878371,0.059820566,9.880563,-9.01875,21.65625,-83.775,4.5813544E-4,-0.0011453386,0.002443389
1710733162419,0.14356937,0.069391854,9.894919,-8.38125,21.6375,-83.475006,-1.5271181E-4,0.0012980504,0.0012216945
1710733162522,0.1268196,0.06460621,9.897313,-9.150001,21.46875,-84.01875,-1.5271181E-4,0.0019088977,0.0012216945
1710733162624,0.1363909,0.059820566,9.899706,-8.625,21.300001,-83.30625,-1.5271181E-4,7.635591E-5,0.0018325418
1710733162729,0.14117654,0.05742774,9.880563,-8.83125,22.125,-83.26875,-1.5271181E-4,0.0012980504,0.0
1710733162831,0.13878371,0.06460621,9.87817,-8.3625,21.54375,-83.512505,4.5813544E-4,-5.344914E-4,-6.1084726E-4
1710733162933,0.14356937,0.05742774,9.894919,-8.0625,21.431252,-83.231255,4.5813544E-4,6.8720314E-4,0.0012216945
1710733163037,0.148355,0.038285162,9.892527,-8.94375,21.581251,-82.96875,-1.5271181E-4,-0.0023670332,0.0012216945
1710733163140,0.15314065,0.06699903,9.892527,-8.418751,21.956251,-83.662506,-1.5271181E-4,-5.344914E-4,0.0018325418
1710733163242,0.13878371,0.05503492,9.890134,-8.6625,21.7875,-83.26875,-1.5271181E-4,-5.344914E-4,0.0
1710733163347,0.13399807,0.06699903,9.885348,-8.681251,21.6,-83.30625,-1.5271181E-4,-5.344914E-4,-0.0012216945
1710733163450,0.1363909,0.059820566,9.885348,-8.85,21.768751,-83.775,-0.0013744063,0.0012980504,0.0018325418
1710733163551,0.1363909,0.06699903,9.894919,-8.8125,21.65625,-83.15625,-7.635591E-4,7.635591E-5,0.0012216945
1710733163659,0.13878371,0.05503492,9.897313,-8.400001,21.112501,-83.775,-7.635591E-4,-5.344914E-4,0.0012216945
1710733163760,0.13160525,0.05503492,9.885348,-8.700001,20.925001,-83.5875,-1.5271181E-4,7.635591E-5,0.0012216945
1710733163865,0.14356937,0.050249275,9.882956,-8.7375,21.75,-83.53125,-0.0013744063,6.8720314E-4,6.1084726E-4
1710733163966,0.13399807,0.06460621,9.890134,-8.868751,21.768751,-84.24375,-0.0013744063,0.0012980504,-6.1084726E-4
1710733164068,0.14356937,0.0526421,9.894919,-9.0375,21.54375,-84.168755,-1.5271181E-4,0.0012980504,6.1084726E-4
1710733164172,0.1268196,0.069391854,9.882956,-8.7375,21.300001,-83.90625,0.00167983,-5.344914E-4,0.0012216945
1710733164274,0.13160525,0.05742774,9.892527,-8.587501,21.375,-84.225006,4.5813544E-4,-0.0011453386,0.0012216945
1710733164377,0.12203395,0.069391854,9.906884,-8.8125,21.825,-83.625,-1.5271181E-4,7.635591E-5,0.0030542363
1710733164479,0.14356937,0.0741775,9.897313,-8.71875,21.393751,-83.381256,-1.5271181E-4,6.8720314E-4,0.0018325418
1710733164583,0.14356937,0.062213387,9.894919,-7.18125,21.431252,-82.818756,4.5813544E-4,-5.344914E-4,0.0018325418
1710733164685,0.14117654,0.047856454,9.897313,-8.38125,21.243752,-83.4,0.00167983,7.635591E-5,-0.0012216945
1710733164789,0.15314065,0.05503492,9.880563,-9.0,21.393751,-83.925,-7.635591E-4,0.0012980504,0.0
1710733164892,0.14117654,0.06460621,9.880563,-9.0,21.7875,-83.006256,4.5813544E-4,-0.0023670332,0.0
1710733164993,0.13160525,0.05742774,9.902099,-8.8125,21.0375,-83.3625,-7.635591E-4,0.0019088977,-6.1084726E-4
1710733165097,0.11964113,0.076570325,9.899706,-9.01875,21.73125,-83.756256,-7.635591E-4,-0.0011453386,6.1084726E-4
1710733165199,0.1268196,0.078963146,9.894919,-8.981251,21.300001,-83.381256,-1.5271181E-4,6.8720314E-4,0.002443389
1710733165303,0.124426775,0.05742774,9.882956,-8.925,21.84375,-83.53125,0.00167983,7.635591E-5,0.002443389
1710733165406,0.12921242,0.069391854,9.880563,-8.6625,21.337502,-83.4375,-7.635591E-4,6.8720314E-4,6.1084726E-4
1710733165510,0.13878371,0.050249275,9.902099,-9.01875,21.50625,-83.5875,4.5813544E-4,0.0019088977,0.0
1710733165613,0.1363909,0.05503492,9.885348,-8.25,21.300001,-83.34375,4.5813544E-4,7.635591E-5,0.0018325418
1710733165716,0.12921242,0.0741775,9.887741,-8.94375,21.581251,-83.662506,-7.635591E-4,-5.344914E-4,6.1084726E-4
1710733165819,0.14117654,0.05742774,9.899706,-8.400001,21.16875,-83.850006,4.5813544E-4,7.635591E-5,0.002443389
1710733165920,0.12921242,0.06699903,9.885348,-8.25,21.300001,-83.55,-1.5271181E-4,-0.0011453386,0.0
1710733166024,0.13878371,0.062213387,9.892527,-8.887501,21.525002,-83.925,-7.635591E-4,6.8720314E-4,-0.0012216945
1710733166129,0.13399807,0.059820566,9.890134,-8.56875,21.075,-83.86875,0.00167983,0.0019088977,6.1084726E-4
1710733166231,0.14117654,0.0526421,9.890134,-8.34375,21.28125,-83.30625,-7.635591E-4,-0.0011453386,0.0
1710733166332,0.14117654,0.05503492,9.909277,-8.887501,22.06875,-83.925,-1.5271181E-4,7.635591E-5,6.1084726E-4
1710733166436,0.15314065,0.05742774,9.875777,-8.512501,21.675001,-84.1125,4.5813544E-4,-0.0011453386,6.1084726E-4
1710733166539,0.13878371,0.05503492,9.897313,-9.243751,21.16875,-83.71875,-1.5271181E-4,-0.0017561859,0.0012216945
1710733166643,0.13878371,0.076570325,9.904491,-8.925,21.112501,-83.9625,4.5813544E-4,7.635591E-5,0.0
1710733166743,0.13878371,0.062213387,9.880563,-8.625,22.143751,-83.700005,4.5813544E-4,-5.344914E-4,6.1084726E-4
1710733166847,0.11246266,0.050249275,9.909277,-8.8125,21.09375,-83.287506,0.0010689828,0.0012980504,0.0012216945
1710733166950,0.13399807,0.062213387,9.892527,-8.56875,20.79375,-83.381256,-7.635591E-4,6.8720314E-4,6.1084726E-4
1710733167055,0.13160525,0.0526421,9.897313,-8.475,21.1875,-83.83125,4.5813544E-4,7.635591E-5,6.1084726E-4
1710733167157,0.13878371,0.07178468,9.916455,-8.71875,21.487501,-83.606255,-1.5271181E-4,-5.344914E-4,0.0012216945
1710733167260,0.14356937,0.069391854,9.894919,-8.775001,22.125,-83.700005,-1.5271181E-4,-5.344914E-4,6.1084726E-4
1710733167362,0.12203395,0.069391854,9.885348,-8.7375,21.46875,-83.4375,4.5813544E-4,6.8720314E-4,0.0012216945
1710733167468,0.13878371,0.05503492,9.892527,-8.212501,21.243752,-83.568756,-1.5271181E-4,7.635591E-5,6.1084726E-4
1710733167571,0.1363909,0.06699903,9.904491,-8.887501,21.16875,-83.3625,-7.635591E-4,0.0019088977,0.0018325418
1710733167673,0.13399807,0.06460621,9.887741,-8.85,21.35625,-83.64375,4.5813544E-4,6.8720314E-4,0.0012216945
1710733167777,0.1268196,0.06699903,9.892527,-8.868751,22.050001,-84.168755,-1.5271181E-4,0.0019088977,0.0012216945
1710733167882,0.13878371,0.059820566,9.880563,-8.981251,21.525002,-83.68125,-7.635591E-4,-0.0011453386,0.002443389
1710733167984,0.13878371,0.06699903,9.882956,-8.868751,21.6375,-83.943756,-1.5271181E-4,7.635591E-5,6.1084726E-4
1710733168085,0.14596218,0.05742774,9.899706,-9.20625,21.46875,-84.46875,-0.0013744063,7.635591E-5,0.0
1710733168189,0.1363909,0.07178468,9.875777,-8.868751,21.2625,-83.287506,4.5813544E-4,-0.0017561859,0.0012216945
1710733168291,0.14117654,0.06460621,9.887741,-8.7375,21.300001,-83.15625,-1.5271181E-4,-5.344914E-4,0.0
1710733168395,0.13878371,0.050249275,9.887741,-8.75625,21.09375,-83.53125,-1.5271181E-4,0.0019088977,0.0012216945
1710733168497,0.13878371,0.07178468,9.897313,-9.31875,21.431252,-83.5875,-1.5271181E-4,-0.0011453386,-6.1084726E-4
1710733168602,0.1363909,0.06460621,9.880563,-9.075001,21.1875,-83.64375,-1.5271181E-4,-0.0011453386,0.0
1710733168705,0.1268196,0.078963146,9.906884,-8.7375,21.487501,-83.887505,4.5813544E-4,-0.0011453386,0.0
1710733168807,0.13160525,0.05503492,9.909277,-8.94375,21.6,-83.287506,4.5813544E-4,0.0012980504,0.0012216945
1710733168917,0.1363909,0.069391854,9.880563,-8.90625,21.975,-83.08125,4.5813544E-4,6.8720314E-4,0.0018325418
1710733169015,0.124426775,0.06460621,9.906884,-7.2375,21.46875,-82.387505,-1.5271181E-4,7.635591E-5,0.0012216945
1710733169117,0.1268196,0.069391854,9.894919,-7.6687503,21.45,-82.575005,0.0010689828,-5.344914E-4,0.0012216945
1710733169219,0.14596218,0.059820566,9.892527,-8.45625,22.40625,-83.793755,-1.5271181E-4,6.8720314E-4,0.0
1710733169322,0.13399807,0.0526421,9.887741,-8.6625,21.300001,-83.381256,0.00167983,0.0012216945,-7.635591E-4
1710733169427,0.1268196,0.0526421,9.887741,-8.775001,21.73125,-83.512505,-7.635591E-4,-0.0012216945,-1.5271181E-4
1710733169529,0.13160525,0.050249275,9.902099,-8.75625,22.2,-83.2125,-1.5271181E-4,6.1084726E-4,-7.635591E-4
1710733169632,0.14117654,0.06699903,9.885348,-9.262501,21.768751,-83.925,-0.0013744063,-0.0,-1.5271181E-4
1710733169734,0.11964113,0.06699903,9.892527,-9.0375,21.206251,-83.606255,-1.5271181E-4,-0.002443389,-1.5271181E-4
1710733169840,0.12921242,0.050249275,9.894919,-8.400001,21.1875,-83.5875,-7.635591E-4,-0.0012216945,4.5813544E-4
1710733169940,0.12921242,0.047856454,9.880563,-9.168751,21.54375,-83.568756,0.0010689828,-0.0018325418,-7.635591E-4
1710733170044,0.13160525,0.06699903,9.902099,-8.85,21.73125,-84.09375,4.5813544E-4,-0.0,0.0010689828
1710733170146,0.13160525,0.047856454,9.892527,-8.793751,21.50625,-83.64375,-7.635591E-4,6.1084726E-4,-1.5271181E-4
1710733170249,0.14596218,0.050249275,9.894919,-8.71875,21.075,-83.4,4.5813544E-4,6.1084726E-4,-1.5271181E-4
1710733170356,0.13399807,0.062213387,9.902099,-8.887501,21.9375,-83.49375,4.5813544E-4,-0.0,4.5813544E-4
1710733170458,0.13399807,0.07178468,9.873384,-8.681251,21.84375,-83.2125,-7.635591E-4,-6.1084726E-4,-1.5271181E-4
1710733170560,0.12203395,0.059820566,9.894919,-8.7375,21.7875,-83.7375,4.5813544E-4,-0.0,0.0022906773
1710733170662,0.124426775,0.069391854,9.894919,-8.8125,21.88125,-83.475006,0.00167983,6.1084726E-4,-7.635591E-4
1710733170763,0.13399807,0.06699903,9.91167,-8.2875,21.9375,-83.49375,-1.5271181E-4,6.1084726E-4,4.5813544E-4
1710733170870,0.124426775,0.05742774,9.882956,-8.868751,21.675001,-83.30625,4.5813544E-4,0.0018325418,-1.5271181E-4
1710733170971,0.12921242,0.062213387,9.880563,-8.587501,21.581251,-83.756256,0.00167983,-6.1084726E-4,-7.635591E-4
1710733171073,0.124426775,0.050249275,9.887741,-8.962501,21.7875,-83.475006,0.0010689828,6.1084726E-4,4.5813544E-4
1710733171177,0.14117654,0.05503492,9.887741,-8.306251,21.5625,-83.606255,-1.5271181E-4,6.1084726E-4,-7.635591E-4
1710733171282,0.14356937,0.07178468,9.899706,-8.19375,21.35625,-83.86875,-7.635591E-4,0.0012216945,-1.5271181E-4
1710733171383,0.1268196,0.05503492,9.909277,-8.83125,21.243752,-83.4,4.5813544E-4,-0.0012216945,-7.635591E-4
1710733171486,0.124426775,0.05503492,9.882956,-9.09375,21.2625,-84.037506,0.00167983,6.1084726E-4,4.5813544E-4
1710733171590,0.14356937,0.06460621,9.902099,-8.4375,21.618752,-83.25,-1.5271181E-4,-0.0,-1.5271181E-4
1710733171694,0.14356937,0.069391854,9.892527,-8.3625,21.806252,-83.86875,0.0010689828,6.1084726E-4,4.5813544E-4
1710733171798,0.14117654,0.06460621,9.897313,-8.4375,21.4125,-83.475006,4.5813544E-4,-0.0,-1.5271181E-4
1710733171902,0.1268196,0.062213387,9.906884,-8.85,21.16875,-83.850006,0.0010689828,6.1084726E-4,0.0010689828
1710733172003,0.13160525,0.06699903,9.892527,-8.887501,21.487501,-83.0625,4.5813544E-4,-0.0,4.5813544E-4
1710733172105,0.14356937,0.06699903,9.885348,-8.625,21.6375,-83.381256,-7.635591E-4,6.1084726E-4,0.00167983
1710733172208,0.13399807,0.062213387,9.873384,-9.09375,21.54375,-82.8375,-1.5271181E-4,-0.0012216945,-1.5271181E-4
1710733172313,0.12203395,0.05503492,9.902099,-9.3,21.09375,-83.418755,4.5813544E-4,6.1084726E-4,-1.5271181E-4
1710733172415,0.13160525,0.050249275,9.899706,-8.26875,21.712502,-83.11875,4.5813544E-4,-0.0012216945,-0.0013744063
1710733172517,0.13399807,0.05503492,9.899706,-9.1125,22.10625,-83.625,4.5813544E-4,0.0012216945,-1.5271181E-4
1710733172621,0.14117654,0.06699903,9.892527,-8.493751,22.125,-83.925,0.0010689828,-0.0,-1.5271181E-4
1710733172722,0.13160525,0.0526421,9.887741,-8.793751,20.8125,-83.100006,4.5813544E-4,-0.0,-0.0013744063
1710733172827,0.13399807,0.0526421,9.899706,-8.75625,21.16875,-83.55,0.0010689828,0.0018325418,-7.635591E-4
1710733172928,0.1268196,0.05742774,9.899706,-8.55,21.73125,-83.325005,-7.635591E-4,6.1084726E-4,0.0010689828
1710733173030,0.1363909,0.0741775,9.906884,-8.71875,21.206251,-83.775,-1.5271181E-4,0.0012216945,-1.5271181E-4
1710733173134,0.13878371,0.062213387,9.899706,-8.700001,21.806252,-82.9875,-7.635591E-4,-0.0,4.5813544E-4
1710733173236,0.11485548,0.0526421,9.894919,-8.418751,21.45,-83.7375,4.5813544E-4,-0.0,-1.5271181E-4
1710733173340,0.13160525,0.062213387,9.892527,-8.45625,21.91875,-82.96875,4.5813544E-4,-0.0,-7.635591E-4
1710733173443,0.14117654,0.059820566,9.890134,-9.13125,21.618752,-83.512505,-1.5271181E-4,0.0012216945,-7.635591E-4
1710733173545,0.1268196,0.06460621,9.894919,-8.681251,21.46875,-83.475006,0.0010689828,6.1084726E-4,0.0010689828
1710733173649,0.13878371,0.05742774,9.887741,-8.6625,21.993752,-84.05625,-1.5271181E-4,6.1084726E-4,-7.635591E-4
1710733173750,0.14117654,0.06699903,9.899706,-8.681251,21.5625,-83.11875,4.5813544E-4,0.0012216945,4.5813544E-4
1710733173854,0.14117654,0.05503492,9.894919,-9.0,21.35625,-83.15625,0.00167983,0.002443389,0.00167983
1710733173959,0.12921242,0.06699903,9.887741,-8.4375,21.4125,-83.4375,-1.5271181E-4,-6.1084726E-4,-7.635591E-4
1710733174058,0.148355,0.050249275,9.890134,-7.93125,21.2625,-82.2375,-7.635591E-4,0.0018325418,4.5813544E-4
1710733174163,0.124426775,0.05742774,9.897313,-7.33125,21.6,-82.481255,-1.5271181E-4,6.1084726E-4,-7.635591E-4
1710733174265,0.13878371,0.06460621,9.897313,-7.5000005,21.7875,-82.6125,4.5813544E-4,-0.0,-1.5271181E-4
1710733174367,0.148355,0.0526421,9.899706,-7.5750003,21.581251,-82.575005,-1.5271181E-4,0.0012216945,-0.0013744063
1710733174471,0.11964113,0.07178468,9.885348,-8.15625,21.581251,-82.89375,4.5813544E-4,-0.0,-0.0013744063
1710733174575,0.13160525,0.06460621,9.885348,-8.4375,21.300001,-83.11875,-1.5271181E-4,-0.0,-1.5271181E-4
1710733174678,0.13160525,0.059820566,9.892527,-8.25,22.1625,-83.3625,-7.635591E-4,-0.0012216945,-1.5271181E-4
1710733174780,0.13399807,0.06699903,9.894919,-8.94375,21.525002,-82.875,-7.635591E-4,-0.0,4.5813544E-4
1710733174883,0.124426775,0.06699903,9.880563,-8.212501,21.806252,-83.2125,4.5813544E-4,6.1084726E-4,0.00167983
1710733174986,0.13160525,0.05503492,9.897313,-8.493751,21.525002,-83.90625,4.5813544E-4,-0.0,-1.5271181E-4
1710733175089,0.1363909,0.0741775,9.885348,-8.625,21.487501,-83.325005,-7.635591E-4,-6.1084726E-4,4.5813544E-4
1710733175192,0.13399807,0.069391854,9.897313,-8.400001,21.900002,-83.15625,-1.5271181E-4,0.0012216945,-7.635591E-4
1710733175296,0.12921242,0.06460621,9.887741,-8.475,21.675001,-83.625,-7.635591E-4,6.1084726E-4,0.0010689828
1710733175398,0.13160525,0.047856454,9.894919,-8.325001,21.73125,-82.856255,4.5813544E-4,-0.0,-1.5271181E-4
1710733175501,0.13878371,0.059820566,9.894919,-8.8125,21.54375,-83.5875,-7.635591E-4,6.1084726E-4,-1.5271181E-4
1710733175603,0.12203395,0.047856454,9.902099,-8.6625,21.54375,-83.53125,4.5813544E-4,0.0012216945,4.5813544E-4
1710733175708,0.12203395,0.0741775,9.897313,-8.231251,21.581251,-83.7375,4.5813544E-4,-0.0,-0.0013744063
1710733175809,0.14117654,0.06699903,9.882956,-8.137501,21.91875,-83.325005,0.0010689828,-6.1084726E-4,4.5813544E-4
1710733175914,0.13399807,0.05503492,9.887741,-8.475,22.03125,-83.68125,-0.0013744063,0.0012216945,-1.5271181E-4
1710733176012,0.11485548,0.06699903,9.887741,-8.45625,21.712502,-83.512505,0.00167983,-0.0,4.5813544E-4
1710733176118,0.13399807,0.059820566,9.899706,-8.1,21.45,-83.30625,-1.5271181E-4,-0.0,-0.0013744063
1710733176221,0.148355,0.06699903,9.870992,-8.512501,21.5625,-83.606255,-7.635591E-4,-0.0,-7.635591E-4
1710733176322,0.1363909,0.06460621,9.890134,-8.71875,21.6,-83.90625,-1.5271181E-4,-0.0018325418,-0.0019852535
1710733176426,0.1363909,0.062213387,9.899706,-8.34375,21.112501,-83.86875,-1.5271181E-4,-0.0012216945,-1.5271181E-4
1710733176529,0.148355,0.059820566,9.887741,-8.925,21.112501,-83.606255,-7.635591E-4,-6.1084726E-4,4.5813544E-4
1710733176635,0.13399807,0.062213387,9.894919,-8.83125,21.16875,-83.5875,-0.0013744063,-6.1084726E-4,-7.635591E-4
1710733176737,0.14596218,0.06460621,9.875777,-9.0,21.112501,-83.793755,-1.5271181E-4,6.1084726E-4,-0.0013744063
1710733176841,0.13878371,0.050249275,9.880563,-8.625,21.806252,-83.606255,-1.5271181E-4,-0.002443389,4.5813544E-4
1710733176943,0.13878371,0.05742774,9.897313,-8.981251,22.06875,-84.131256,4.5813544E-4,-6.1084726E-4,0.0010689828
1710733177047,0.13160525,0.059820566,9.897313,-8.475,21.4125,-83.11875,-7.635591E-4,-6.1084726E-4,-7.635591E-4
1710733177149,0.14596218,0.06460621,9.902099,-8.53125,21.375,-83.9625,-1.5271181E-4,-0.0,-0.0025961008
1710733177253,0.13878371,0.05503492,9.887741,-8.212501,21.4125,-83.625,-7.635591E-4,-6.1084726E-4,4.5813544E-4
1710733177355,0.14356937,0.078963146,9.897313,-8.85,21.69375,-83.006256,4.5813544E-4,-6.1084726E-4,4.5813544E-4
1710733177462,0.1268196,0.069391854,9.904491,-8.7375,21.9375,-83.45625,4.5813544E-4,-0.0,-1.5271181E-4
1710733177565,0.12921242,0.062213387,9.902099,-8.325001,21.393751,-83.325005,4.5813544E-4,6.1084726E-4,-1.5271181E-4
1710733177668,0.1363909,0.05503492,9.902099,-8.75625,21.45,-84.075005,0.0010689828,-0.0,-7.635591E-4
1710733177771,0.12921242,0.062213387,9.904491,-8.6625,21.4125,-83.53125,-0.0013744063,-0.0012216945,4.5813544E-4
1710733177875,0.12921242,0.06460621,9.887741,-9.28125,21.4125,-83.45625,-0.0013744063,-6.1084726E-4,-7.635591E-4
1710733177978,0.14596218,0.05503492,9.904491,-8.6625,21.150002,-82.875,-1.5271181E-4,-6.1084726E-4,-1.5271181E-4
1710733178082,0.14356937,0.059820566,9.904491,-8.71875,21.73125,-83.793755,-1.5271181E-4,-0.0012216945,-1.5271181E-4
1710733178184,0.14117654,0.05742774,9.899706,-8.38125,20.831251,-84.0,-1.5271181E-4,-0.0012216945,-0.0025961008
1710733178288,0.14117654,0.06699903,9.897313,-8.700001,21.4125,-83.418755,4.5813544E-4,-6.1084726E-4,-7.635591E-4
1710733178390,0.13399807,0.07178468,9.904491,-8.587501,21.075,-83.11875,0.0010689828,-6.1084726E-4,-7.635591E-4
1710733178492,0.14117654,0.05503492,9.906884,-8.887501,21.862501,-83.325005,0.0010689828,-6.1084726E-4,4.5813544E-4
1710733178597,0.13878371,0.047856454,9.894919,-8.493751,21.993752,-83.08125,0.0010689828,6.1084726E-4,-1.5271181E-4
1710733178701,0.1363909,0.062213387,9.894919,-8.400001,21.2625,-83.043755,4.5813544E-4,-6.1084726E-4,4.5813544E-4
1710733178804,0.14117654,0.03589234,9.894919,-8.83125,21.393751,-84.075005,4.5813544E-4,-6.1084726E-4,4.5813544E-4
1710733178907,0.1363909,0.062213387,9.887741,-8.625,21.150002,-83.625,0.00167983,-0.0,0.0010689828
1710733179011,0.15314065,0.06460621,9.904491,-9.13125,21.09375,-83.418755,-7.635591E-4,-0.0,4.5813544E-4
1710733179111,0.13160525,0.05503492,9.899706,-8.325001,21.65625,-83.381256,4.5813544E-4,-0.0012216945,-1.5271181E-4
1710733179217,0.14356937,0.062213387,9.87817,-8.981251,21.31875,-82.950005,-1.5271181E-4,-0.0012216945,-1.5271181E-4
1710733179320,0.1268196,0.06699903,9.890134,-8.887501,20.8875,-83.025,4.5813544E-4,6.1084726E-4,-0.0013744063
1710733179423,0.12921242,0.062213387,9.887741,-9.01875,21.487501,-83.418755,-0.0013744063,-0.0,-7.635591E-4
1710733179536,0.124426775,0.04546363,9.887741,-8.90625,21.73125,-84.225006,4.5813544E-4,6.1084726E-4,-7.635591E-4
1710733179644,0.13160525,0.059820566,9.890134,-9.056251,21.487501,-83.850006,-7.635591E-4,6.1084726E-4,4.5813544E-4
1710733179751,0.12921242,0.05503492,9.892527,-9.450001,22.050001,-83.25,0.0010689828,-0.0012216945,-1.5271181E-4
1710733179861,0.12921242,0.059820566,9.892527,-9.5625,21.2625,-82.93125,-1.5271181E-4,-0.0,-1.5271181E-4
1710733179970,0.124426775,0.06460621,9.890134,-8.981251,21.65625,-83.006256,4.5813544E-4,-0.002443389,-7.635591E-4
1710733180077,0.13160525,0.07178468,9.882956,-8.962501,21.31875,-83.100006,4.5813544E-4,-0.0,-0.0013744063
1710733180181,0.14596218,0.05742774,9.9140625,-8.512501,21.69375,-83.64375,-7.635591E-4,0.0012216945,-7.635591E-4
1710733180290,0.1268196,0.062213387,9.880563,-9.168751,21.300001,-83.34375,4.5813544E-4,-0.0,-1.5271181E-4
1710733180396,0.124426775,0.0526421,9.902099,-8.868751,21.581251,-82.912506,-7.635591E-4,-0.0,-1.5271181E-4
1710733180500,0.12203395,0.0741775,9.882956,-9.0375,21.46875,-82.74375,-7.635591E-4,-0.0,4.5813544E-4
1710733180613,0.12203395,0.05503492,9.902099,-9.1125,21.46875,-82.875,-1.5271181E-4,-6.1084726E-4,-1.5271181E-4
1710733180718,0.13878371,0.062213387,9.902099,-8.2875,21.112501,-83.625,-0.0013744063,-0.0,4.5813544E-4
1710733180823,0.14117654,0.059820566,9.899706,-8.1,21.393751,-82.70625,-1.5271181E-4,6.1084726E-4,-1.5271181E-4
1710733180930,0.11964113,0.07178468,9.904491,-9.1125,21.581251,-82.668755,4.5813544E-4,-6.1084726E-4,4.5813544E-4
1710733181035,0.13160525,0.04546363,9.899706,-9.168751,21.375,-82.950005,4.5813544E-4,-0.0012216945,-7.635591E-4
1710733181142,0.12921242,0.043070808,9.894919,-9.20625,21.075,-83.475006,-7.635591E-4,-6.1084726E-4,-0.0013744063
1710733181247,0.13160525,0.069391854,9.902099,-8.71875,21.525002,-83.64375,4.5813544E-4,-0.0018325418,4.5813544E-4
1710733181344,0.13399807,0.062213387,9.894919,-8.118751,21.35625,-84.075005,-1.5271181E-4,-0.0,-7.635591E-4
1710733181448,0.1363909,0.062213387,9.906884,-8.25,21.5625,-83.08125,-1.5271181E-4,-0.0012216945,-0.0019852535
1710733181561,0.14356937,0.050249275,9.902099,-8.925,21.73125,-83.175,-1.5271181E-4,6.1084726E-4,0.0010689828
1710733181669,0.12203395,0.059820566,9.904491,-9.31875,21.150002,-83.775,4.5813544E-4,-0.0018325418,0.0010689828
1710733181779,0.12921242,0.062213387,9.909277,-9.262501,21.35625,-83.231255,-1.5271181E-4,6.1084726E-4,4.5813544E-4
1710733181886,0.1363909,0.06699903,9.9140625,-8.606251,22.087502,-82.6125,0.00167983,-0.0018325418,-1.5271181E-4
1710733181993,0.13399807,0.06699903,9.91167,-8.625,21.4125,-82.93125,-0.0013744063,-0.0012216945,4.5813544E-4
1710733182098,0.12921242,0.062213387,9.923634,-8.7375,21.4125,-82.537506,-1.5271181E-4,6.1084726E-4,4.5813544E-4
1710733182204,0.13878371,0.047856454,9.9140625,-8.681251,21.50625,-82.96875,-7.635591E-4,-0.0018325418,4.5813544E-4
1710733182309,0.13878371,0.06460621,9.91167,-8.475,21.393751,-82.950005,-0.0013744063,0.0012216945,-7.635591E-4
1710733182416,0.15074782,0.05742774,9.902099,-8.7375,21.9375,-83.700005,-1.5271181E-4,-6.1084726E-4,-0.0013744063
1710733182522,0.13399807,0.06460621,9.918848,-8.981251,21.1875,-83.568756,4.5813544E-4,-0.0,4.5813544E-4
1710733182628,0.15792629,0.05742774,9.902099,-9.243751,21.825,-83.26875,4.5813544E-4,-0.0,4.5813544E-4
1710733182737,0.13399807,0.06460621,9.918848,-8.775001,21.150002,-83.193756,-1.5271181E-4,6.1084726E-4,-0.0025961008
1710733182844,0.148355,0.062213387,9.899706,-9.01875,22.10625,-83.11875,-7.635591E-4,6.1084726E-4,4.5813544E-4
1710733182954,0.15074782,0.069391854,9.906884,-8.90625,21.4125,-83.71875,-7.635591E-4,-0.0012216945,-1.5271181E-4
1710733183058,0.14117654,0.062213387,9.904491,-8.85,21.6,-83.006256,4.5813544E-4,-0.0,4.5813544E-4
1710733183168,0.13878371,0.047856454,9.921241,-8.45625,21.50625,-83.49375,4.5813544E-4,-0.0,-0.0013744063
1710733183271,0.14117654,0.050249275,9.906884,-8.887501,21.35625,-83.925,-7.635591E-4,-0.0,-0.0013744063
1710733183384,0.1268196,0.06699903,9.887741,-8.700001,21.6,-83.2125,4.5813544E-4,0.0018325418,4.5813544E-4
1710733183485,0.14117654,0.050249275,9.902099,-9.0,21.337502,-82.89375,4.5813544E-4,0.0018325418,4.5813544E-4
1710733183594,0.12921242,0.0526421,9.904491,-9.356251,21.393751,-83.26875,4.5813544E-4,6.1084726E-4,0.00167983
1710733183701,0.1363909,0.06699903,9.923634,-9.337501,20.75625,-82.8,-1.5271181E-4,0.0012216945,-1.5271181E-4
1710733183810,0.14356937,0.06699903,9.894919,-8.64375,20.8875,-83.55,-7.635591E-4,0.0012216945,-1.5271181E-4
1710733183914,0.14596218,0.05503492,9.897313,-8.887501,21.46875,-84.075005,-1.5271181E-4,6.1084726E-4,-7.635591E-4
1710733184021,0.1363909,0.07178468,9.904491,-8.793751,21.056252,-83.53125,-7.635591E-4,-6.1084726E-4,4.5813544E-4
1710733184128,0.13878371,0.050249275,9.906884,-9.168751,21.618752,-83.606255,0.0010689828,6.1084726E-4,4.5813544E-4
1710733184235,0.14596218,0.06460621,9.921241,-8.64375,21.862501,-83.3625,4.5813544E-4,-0.0,4.5813544E-4
1710733184340,0.1363909,0.069391854,9.909277,-8.962501,21.675001,-83.49375,-1.5271181E-4,0.002443389,-1.5271181E-4
1710733184449,0.14356937,0.06460621,9.904491,-8.775001,21.393751,-83.700005,4.5813544E-4,-6.1084726E-4,-1.5271181E-4
1710733184551,0.14356937,0.06699903,9.899706,-8.4375,21.5625,-83.850006,-1.5271181E-4,-0.0012216945,-7.635591E-4
1710733184654,0.14356937,0.06699903,9.892527,-8.512501,20.775002,-83.943756,-7.635591E-4,-0.0,4.5813544E-4
1710733184764,0.14117654,0.05503492,9.921241,-8.512501,21.075,-83.381256,-0.0013744063,-0.0012216945,4.5813544E-4
1710733184871,0.13878371,0.062213387,9.916455,-8.775001,21.825,-83.64375,-1.5271181E-4,6.1084726E-4,-1.5271181E-4
1710733184976,0.148355,0.059820566,9.916455,-8.962501,20.775002,-83.4,-1.5271181E-4,-6.1084726E-4,-7.635591E-4
1710733185085,0.13399807,0.0526421,9.9140625,-9.3,21.75,-83.25,4.5813544E-4,-6.1084726E-4,4.5813544E-4
1710733185191,0.13399807,0.05503492,9.918848,-9.450001,21.50625,-83.137505,0.0010689828,-0.0,-0.0013744063
1710733185297,0.13878371,0.05503492,9.9140625,-8.75625,21.35625,-83.175,-1.5271181E-4,-6.1084726E-4,-0.0013744063
1710733185403,0.14356937,0.059820566,9.91167,-8.94375,21.35625,-83.568756,-7.635591E-4,6.1084726E-4,0.0010689828
1710733185509,0.12921242,0.059820566,9.902099,-7.8,20.90625,-81.881256,-7.635591E-4,0.0018325418,-0.0013744063
1710733185615,0.14117654,0.076570325,9.921241,-7.93125,21.712502,-82.387505,4.5813544E-4,-6.1084726E-4,4.5813544E-4
1710733185722,0.13160525,0.059820566,9.923634,-9.28125,20.925001,-83.793755,-1.5271181E-4,0.0012216945,-7.635591E-4
1710733185830,0.13878371,0.06460621,9.918848,-7.5000005,21.150002,-82.125,-1.5271181E-4,-6.1084726E-4,-1.5271181E-4
1710733185938,0.14117654,0.07178468,9.909277,-8.8125,21.09375,-83.100006,-1.5271181E-4,0.0018325418,-7.635591E-4
1710733186047,0.14117654,0.059820566,9.916455,-8.400001,21.525002,-82.96875,4.5813544E-4,6.1084726E-4,-0.0019852535
1710733186151,0.12921242,0.062213387,9.9140625,-8.94375,21.0375,-83.175,-1.5271181E-4,0.0012216945,-7.635591E-4
1710733186258,0.1363909,0.06460621,9.904491,-8.55,21.50625,-83.193756,4.5813544E-4,-0.0012216945,0.00167983
1710733186363,0.12921242,0.05742774,9.9140625,-9.3,21.618752,-83.68125,4.5813544E-4,6.1084726E-4,-0.0013744063
1710733186470,0.14356937,0.0526421,9.91167,-8.981251,21.45,-82.950005,-7.635591E-4,-0.0,4.5813544E-4
1710733186575,0.12921242,0.07178468,9.909277,-9.168751,20.831251,-84.075005,-0.0013744063,0.0012216945,4.5813544E-4
1710733186681,0.12921242,0.047856454,9.91167,-8.83125,20.79375,-83.606255,-0.0013744063,6.1084726E-4,4.5813544E-4
1710733186787,0.14356937,0.06460621,9.91167,-8.775001,20.85,-83.53125,-7.635591E-4,6.1084726E-4,4.5813544E-4
1710733186893,0.13878371,0.062213387,9.9140625,-8.56875,21.375,-82.74375,4.5813544E-4,-0.0012216945,-7.635591E-4
1710733187001,0.148355,0.069391854,9.923634,-8.56875,21.487501,-83.11875,-7.635591E-4,6.1084726E-4,-0.0013744063
1710733187107,0.13878371,0.06460621,9.9140625,-8.700001,21.150002,-83.043755,-1.5271181E-4,0.0018325418,4.5813544E-4
1710733187214,0.14596218,0.06460621,9.909277,-8.868751,21.88125,-83.53125,4.5813544E-4,6.1084726E-4,-0.0013744063
1710733187319,0.13878371,0.062213387,9.916455,-8.981251,20.90625,-83.49375,-7.635591E-4,-0.0,4.5813544E-4
1710733187424,0.13160525,0.062213387,9.926026,-8.6625,21.46875,-83.175,4.5813544E-4,-6.1084726E-4,-7.635591E-4
1710733187531,0.1268196,0.069391854,9.930812,-8.587501,22.0125,-83.0625,4.5813544E-4,-6.1084726E-4,0.0010689828
1710733187634,0.1268196,0.059820566,9.923634,-8.962501,20.8875,-83.4,-1.5271181E-4,6.1084726E-4,-7.635591E-4
1710733187743,0.13399807,0.05742774,9.91167,-8.38125,21.206251,-82.912506,-1.5271181E-4,6.1084726E-4,-1.5271181E-4
1710733187849,0.12921242,0.05503492,9.909277,-9.150001,21.50625,-83.381256,-7.635591E-4,6.1084726E-4,-1.5271181E-4
1710733187956,0.148355,0.047856454,9.909277,-8.55,21.46875,-83.68125,0.0029015245,-0.0012216945,-1.5271181E-4
1710733188063,0.13878371,0.0526421,9.899706,-8.53125,21.525002,-83.175,4.5813544E-4,6.1084726E-4,-0.0013744063
1710733188170,0.124426775,0.059820566,9.91167,-8.981251,21.075,-83.568756,4.5813544E-4,-6.1084726E-4,-7.635591E-4
1710733188282,0.14117654,0.07178468,9.926026,-8.6625,21.618752,-83.981255,-1.5271181E-4,6.1084726E-4,4.5813544E-4
1710733188393,0.124426775,0.05503492,9.894919,-7.5000005,21.0375,-82.762505,4.5813544E-4,-0.0,4.5813544E-4
1710733188491,0.13160525,0.05742774,9.909277,-7.6312504,21.6,-83.25,-0.0013744063,-0.0,-7.635591E-4
1710733188589,0.14356937,0.062213387,9.904491,-8.475,21.525002,-83.325005,4.5813544E-4,-6.1084726E-4,4.5813544E-4
1710733188706,0.14596218,0.062213387,9.9140625,-8.681251,21.0,-83.418755,0.0010689828,-0.0,4.5813544E-4
1710733188801,0.11724831,0.06460621,9.918848,-8.55,20.868752,-84.075005,-1.5271181E-4,6.1084726E-4,-1.5271181E-4
1710733188909,0.14117654,0.04546363,9.916455,-8.45625,22.25625,-83.49375,0.0010689828,0.0012216945,4.5813544E-4
1710733189012,0.13160525,0.062213387,9.933205,-8.606251,21.431252,-83.86875,-1.5271181E-4,6.1084726E-4,-0.0013744063
1710733189115,0.13878371,0.07178468,9.916455,-8.137501,21.9375,-83.887505,-1.5271181E-4,-6.1084726E-4,-0.0013744063
1710733189218,0.13399807,0.059820566,9.909277,-8.137501,21.35625,-83.793755,4.5813544E-4,0.0012216945,-1.5271181E-4
1710733189324,0.13160525,0.0526421,9.91167,-8.90625,21.13125,-83.4375,-7.635591E-4,-0.0,4.5813544E-4
1710733189427,0.14117654,0.059820566,9.909277,-8.26875,21.31875,-83.71875,-1.5271181E-4,-0.0,-1.5271181E-4
1710733189540,0.13399807,0.069391854,9.923634,-8.3625,21.956251,-83.30625,4.5813544E-4,0.0012216945,-0.0013744063
1710733189651,-0.36640096,0.48125646,9.801301,-8.53125,21.50625,-83.231255,-0.012980504,0.14232741,0.062764555
1710733189748,-6.439983,-3.370889,9.7247305,-8.38125,21.91875,-83.793755,-0.05635066,-0.004275931,1.5465126
1710733189856,-0.5051847,2.2241287,11.300105,-0.73125005,24.2625,-70.425,-0.7844806,0.42209545,1.6931158
1710733189966,-5.654838,-7.9483585,8.745767,13.406251,23.71875,-43.5,0.8025006,3.144107,-2.9683359
1710733190072,-13.054941,-4.857729,3.1244283,22.48125,26.268751,-28.425001,-0.8632799,5.1752505,-0.07711947
1710733190179,-17.10569,-3.8042889,-3.1962128,30.093752,30.31875,-8.64375,-2.7007847,5.853291,-0.5182275
1710733190284,-8.0345,-5.858228,-4.788337,29.23125,29.19375,17.362501,-7.74959,1.6847167,1.6699036
1710733190390,-4.936692,1.9295124,-0.42622152,26.475,1.40625,37.40625,-5.43257,0.6139015,1.1818367
1710733190496,-5.468198,-0.1052842,0.87637126,23.75625,-20.25,33.84375,-2.2414277,0.52288526,0.35597125
1710733190602,-6.8614187,5.10419,-0.2440679,22.25625,-28.987501,29.60625,-0.94146836,-0.2242573,-0.6367319
1710733190708,-4.043571,4.9438705,0.64875406,21.2625,-29.118752,29.025002,1.9161515,2.4336154,0.20875706
1710733190813,-6.698707,6.6532435,-7.562815,16.0125,-25.29375,36.80625,0.9436063,-0.05314371,-1.39235
1710733190920,-10.431211,3.7396827,-1.9992033,23.94375,-20.550001,34.912502,-0.5853444,-1.921191,-2.0691688
1710733191025,-7.510173,5.1329036,-1.3334004,32.925003,-17.98125,27.525002,-0.9457443,-2.8631175,-0.78700036
1710733191133,-11.347961,5.0132627,2.7221348,38.081253,-18.487501,17.2875,-0.48272204,0.3268033,-0.52433604
1710733191240,-7.5029945,1.7285153,-0.62961143,34.143753,-21.431252,19.66875,1.1721395,3.8203151,7.259309
1710733191345,2.193022,1.5275182,0.51236314,15.056251,-33.73125,28.837502,-1.2285665,0.66765606,-0.3733804
1710733191452,-6.6915283,5.599803,-0.61764735,13.425,-36.881252,24.300001,-1.318972,0.6603259,-2.9988782
1710733191559,-10.127024,7.8335032,-1.2640085,21.4125,-34.55625,23.4375,-0.26892552,-0.6048151,-2.2793002
1710733191666,-3.2656047,2.219343,0.15553348,27.7875,-28.800001,22.612501,0.44637662,-1.0641723,-2.6012168
1710733191771,-13.967205,-0.325723,3.9358943,38.550003,-17.325,19.143751,1.3969313,-2.0598533,-3.5939198
1710733191881,-13.569697,-0.53629136,-1.0390832,43.275,-0.3375,14.062501,-0.8058602,1.7543533,0.41827765
1710733191986,-7.998608,3.545565,-2.6623142,36.28125,-3.4875002,26.625002,1.7750458,0.45813546,1.3479872
1710733192091,-8.977871,0.92183495,-2.652743,30.6375,-5.7000003,34.237503,-1.2939272,0.8521319,-1.7545824
1710733192196,-7.086643,4.8601217,-3.5001013,28.931252,-4.93125,35.98125,0.19898349,0.6462764,0.86663955
1710733192304,-9.260523,0.72053874,-4.3501515,28.500002,-3.05625,37.3125,0.048104223,1.4733636,-0.7246939
1710733192409,-8.807981,0.48364928,-4.479364,27.13125,-1.06875,37.3125,0.065818794,-1.0763892,0.404839
1710733192516,-9.605089,2.3246272,-1.1970096,31.893751,-1.8375001,33.1875,-0.46195325,-0.8271635,-0.87129724
1710733192622,-7.9914293,2.7915268,-1.2376875,33.6375,-0.93750006,30.562502,-1.4466391,2.6749766,-1.1431243
1710733192730,-8.729017,3.0762727,-5.022834,27.000002,-2.625,38.193752,-0.75027317,1.4287717,-1.2029873
1710733192835,-5.2549376,-1.4222339,-7.1153574,27.656252,-0.91875005,37.85625,0.68949383,-4.470333,-2.847999
1710733192943,-7.6540413,-6.009275,-1.8696918,37.893753,9.993751,23.7,0.9356653,-0.8393805,-2.15652
1710733193051,-6.282057,-8.12782,-2.204986,37.050003,18.84375,18.806252,-1.3733374,0.635892,-3.0495787
1710733193156,-5.10419,-9.025727,-5.360521,23.587502,28.500002,27.150002,1.178248,1.2375766,-2.1381946
1710733193261,-2.312663,-10.0672035,0.37836507,13.70625,33.881252,29.2875,-0.24632415,-2.3793263,-0.07834116
1710733193368,-5.5447683,-7.333104,-3.3613176,17.6625,33.787502,24.900002,0.19104248,-2.1307116,-0.73935425
1710733193475,-2.6814568,-9.068798,0.63918275,19.800001,35.756252,24.337502,0.4384356,0.6487198,-0.22738789
1710733193581,-2.204986,-8.908479,-0.42861435,17.737501,37.125,23.737501,0.91978323,1.2363548,0.16172181
1710733193688,-1.8457636,-6.6125655,-1.2783655,15.356251,38.86875,22.3125,-0.4277458,-0.7049941,-0.10949437
1710733193799,-1.2496517,-9.277272,0.26081768,15.4875,37.518753,22.2,0.3553604,0.1368298,-1.0337826
1710733193906,1.8744774,-10.962717,-0.79471624,11.493751,39.91875,21.88125,-0.5322007,-0.68789035,-3.0269773
1710733194011,2.312663,-9.380164,-0.043070808,1.44375,40.7625,23.1375,-0.26281703,-0.04886778,-0.48638713
1710733194117,2.0614166,-10.110274,-1.0390832,-1.40625,40.18125,23.1375,-0.027029991,-0.24013934,-0.40758783
1710733194221,1.4700904,-8.800801,-0.27517462,-2.53125,40.03125,23.23125,0.3400892,0.60412794,0.7908945
1710733194327,1.5777674,-9.104691,-0.124426775,-0.58125,41.006252,21.9375,0.62840915,0.08429692,1.3424896
1710733194432,1.2568301,-7.5580297,0.05503492,3.7500002,41.8125,19.575,0.109188944,-0.3171061,-0.73141325
1710733194538,3.7013974,-10.158131,0.9936196,4.78125,41.643753,19.25625,-0.6378772,-0.73187137,-0.88045996
1710733194651,2.2863421,-11.005788,-0.16749759,1.1625,40.893753,21.4125,-0.6213844,-0.86870116,-0.2664821
1710733194757,4.5559344,-9.736694,-0.94337034,-0.15,40.21875,23.56875,-0.45645562,-0.7960103,-0.26464957
1710733194862,-2.085345,-5.853442,0.18664017,-0.4875,39.581253,24.45,0.6882722,-1.304846,-0.06429167
1710733194970,1.989632,-8.755338,-1.2257234,-0.71250004,41.362503,20.456251,0.6064186,1.3090457,0.3113794
1710733195074,4.0555353,-8.40808,-0.1052842,-2.5875,42.881252,17.475,0.42438614,-0.85343,-0.3697153
1710733195181,2.6024938,-8.999406,-2.219343,-3.4875002,43.40625,15.825001,-0.35627666,-0.12155861,-0.34528142
1710733195291,3.638885,-9.418449,1.89362,-4.05,43.3125,15.468751,0.7664606,0.07207998,0.51418066
1710733195396,1.0031909,-6.923632,-3.9957147,-2.1000001,45.0,12.618751,-1.1619842,-0.32749048,1.1659547
1710733195501,0.3185445,-4.354937,0.9816555,1.29375,43.143753,17.15625,0.11835165,-1.4319023,1.2814049
1710733195604,0.285045,-1.1706885,-1.2520444,8.681251,41.831253,17.4375,0.52212167,-1.6847931,1.9453958
1710733195704,4.2352962,-11.108679,6.768099,18.0,40.575,13.462501,1.0689063,-8.112281,-1.1510653
1710733195813,18.724136,-25.889742,2.8322048,14.118751,42.7125,1.7437501,1.7316756,-1.5626236,-1.2579635
1710733195921,0.4142574,-6.4977098,-0.21774685,5.45625,46.143753,-6.6000004,0.17943639,1.8136055,0.95704496
1710733196027,3.5886357,-10.546066,-1.2352947,8.6625,44.71875,-6.80625,0.021226943,0.8093726,-0.8419766
1710733196135,0.80907315,-9.301201,-1.4844474,8.175,45.600002,-5.775,-0.67819315,2.3254955,1.2068815
1710733196238,0.7253244,-9.097511,0.37597227,13.968751,44.04375,-0.65625,-1.2249014,0.9486458,0.31870955
1710733196345,1.0749756,-10.464711,1.9031913,16.3875,44.006252,6.7500005,-1.4313679,0.07269082,0.44515494
1710733196451,1.0390832,-10.6681,0.72771716,16.275002,42.300003,13.312501,-0.4772244,-0.5571691,0.49463356
1710733196557,1.3094722,-9.463913,-3.19382,18.337502,40.125,15.675,-1.7564149,-0.13133216,0.44698748
1710733196664,2.42034,-8.508578,-0.37597227,19.143751,36.881252,20.8125,-0.6342122,-1.0647831,-2.2463145
1710733196772,3.0092735,-12.1046915,2.4011974,12.637501,39.506252,21.69375,2.4194896,-1.2767471,-1.6904434
1710733196878,6.3275204,-14.031811,0.5602196,4.6687503,44.86875,6.6937504,3.221532,-1.1790116,-4.5755515
1710733196986,16.310974,-9.035298,-1.0917253,-13.668751,42.46875,-8.981251,1.5404804,-1.3592116,-3.3147626
1710733197090,10.715957,-9.84467,0.5937191,-30.937502,31.218752,-12.4125,1.6351618,-2.2534919,-4.1223025
1710733197201,9.9140625,-4.924728,-0.80189466,-43.48125,11.793751,-8.75625,0.7780667,-1.6237084,-4.1626186
1710733197307,6.7322063,-0.6559325,-2.9709885,-45.24375,-6.9375005,-1.44375,1.4531293,-2.8032544,-4.158343
1710733197411,0.63200426,2.844169,-7.809575,-37.443752,-23.60625,12.69375,-0.49005222,-2.3182416,-3.2139728
1710733197518,-1.6447664,2.5184457,-10.076775,-26.325,-37.275,8.025001,-6.3787727,3.4006631,-0.31473905
1710733197626,-6.9020967,6.346663,-1.1012967,-25.368752,-35.53125,-16.95,0.50990474,13.014406,-0.37826717
1710733197725,0.74207413,3.1890345,7.852646,-12.543751,-34.4625,-29.925001,-0.33672956,9.300989,5.228242
1710733197833,2.408376,6.4761744,1.8601205,-9.1875,-32.081253,-34.331253,1.0597436,-4.773313,-3.5389435
1710733197933,4.4913282,11.123036,-1.189831,-13.012501,-36.54375,-26.98125,-1.5022261,-2.2638762,1.3516523
1710733198043,2.5354948,9.693624,0.6128617,-19.3125,-34.575,-25.3875,-0.25365433,-0.89924353,0.5386146
1710733198153,3.9526439,7.9148593,0.3472584,-22.518751,-31.63125,-26.718752,-1.5761386,-0.059252184,2.2081366
1710733198253,9.274879,4.613362,2.085345,-29.156252,-21.73125,-29.250002,-1.7026603,-2.6364932,1.980825
1710733198362,7.7353973,2.5498517,-1.1036894,-37.443752,-7.6125,-25.7625,-2.4827123,1.2223054,2.4506428
1710733198473,10.328021,0.5937191,2.4634109,-35.025,8.85,-30.281252,-2.7417116,0.70552856,1.4835953
1710733198577,11.493923,-3.4187453,7.483852,-30.300001,20.8125,-29.081251,-1.8443769,0.4123219,0.3981197
1710733198685,6.96431,-3.1435707,4.4243293,-27.112501,27.768751,-27.13125,-1.7008278,1.6663914,-0.020310672
1710733198789,3.3852458,-2.4825535,8.120642,-23.118752,32.0625,-24.806252,-1.6720417,-0.026266431,0.58992577
1710733198894,8.558827,-5.9207406,3.4881372,-21.84375,37.4625,-19.06875,-1.0477557,-1.8582737,1.2905675
1710733199003,8.666505,-7.086643,3.6293137,-20.1,40.95,-11.0625,-0.7551599,-1.7275524,0.5740437
1710733199111,7.704291,-6.485746,2.099702,-18.150002,42.16875,-5.53125,-0.07101099,0.05375456,0.053601846
1710733199212,8.5349,-7.012167,1.3836497,-17.15625,42.206253,-4.9125004,-0.020310672,-0.047646087,0.049936764
1710733199320,7.4479594,-6.629315,2.2528424,-17.53125,42.956253,-5.5125003,-0.4381302,0.5094466,-0.13148487
1710733199423,8.867801,-2.260021,0.92183495,-17.71875,42.43125,-3.8812501,-0.49005222,0.60840386,-0.03802524
1710733199527,3.3517463,-3.9526439,5.3629136,-17.71875,42.24375,-3.5062501,-0.37399122,0.5045598,-0.25365433
1710733199630,6.8446693,-5.7433724,3.2081769,-17.2875,42.65625,-4.1062503,0.28511295,1.0207257,0.7664606
1710733199741,5.803193,-4.362116,-1.2257234,-15.31875,43.21875,-5.9437504,0.48363832,-1.8228446,-0.10521844
1710733199849,7.4240313,-8.448758,1.9510478,-14.75625,43.59375,-4.33125,-0.23716144,0.14904673,0.028557109
1710733199955,7.6779695,-7.282855,2.3700907,-14.85,44.081253,-3.5812502,-0.14553437,-0.6225297,0.022448637
1710733200065,7.0148587,-8.226225,0.8353942,-14.587501,43.631252,-2.775,0.33275905,-1.4716074,-0.3324536
1710733200170,10.040882,-0.8066803,1.3046865,-15.4875,43.74375,-0.91875005,0.065818794,-0.51318806,-0.042301174
1710733200276,7.1823564,-6.4208403,-0.25124636,-16.800001,43.48125,-0.1875,-0.084449634,0.15087928,-0.15225367
1710733200382,7.3043904,-6.9619174,0.18903299,-17.04375,43.518753,-0.20625001,0.04382829,-0.6988856,0.25884652
1710733200490,6.971489,-5.819943,-0.22971097,-15.13125,43.78125,0.09375,0.15439165,0.30175856,0.35902548
1710733200596,7.5053873,-6.6221366,0.11006984,-14.08125,43.6875,-1.0875001,-0.19195876,0.15576605,0.47203222
1710733200702,6.6101727,-8.250154,0.3472584,-11.493751,45.46875,0.24375,-0.17790927,-0.30488914,0.37185326
1710733200809,6.143273,-7.606185,0.325723,-9.88125,45.225002,0.975,-0.08261709,-0.48325655,0.45065257
1710733200914,6.7034926,-7.919645,-0.16271193,-7.5000005,46.050003,1.6875001,-0.2005106,-0.43561044,0.6797203
1710733201021,4.196712,-8.05125,0.07178468,-4.8562503,46.237503,2.25,-0.17241164,0.13988402,1.1909994
1710733201128,3.4929228,-4.7210393,-1.9223338,0.88125,46.518753,3.4687502,-0.6152759,-1.2272685,0.74080503
1710733201234,4.7715874,-6.4977098,-2.9159534,4.4625,45.73125,5.6062503,-1.2322316,-5.4440236,-0.9158891
1710733201339,-0.54346985,-27.93441,-1.5514464,4.05,46.237503,6.80625,0.17027368,1.8484238,-0.29763532
1710733201446,1.8481563,-9.87817,-2.0662024,3.1312501,46.03125,6.0750003,-1.0819632,-2.3603902,-0.3965926
1710733201557,3.5934215,-6.255736,-6.133702,2.9625,45.05625,8.775001,-0.49982578,-2.7598844,-1.2518551
1710733201660,1.0199406,-7.392925,-6.372984,1.4250001,45.581253,11.4375,0.11102149,-2.824634,-0.39964682
1710733201767,0.5386842,-7.146464,-4.546363,2.325,44.850002,11.53125,-0.17302248,-2.32435,-0.027640838
1710733201889,0.15792629,-5.999704,-6.5647087,1.8000001,44.41875,11.8125,-0.16080554,1.5326158,-0.6465055
1710733201991,-2.4179473,-9.502198,-3.993322,-1.5562501,45.506252,12.900001,-0.40209022,-0.50463617,-0.08933641
1710733202092,-0.43818563,-7.11775,-6.9595246,-1.4625001,44.643753,13.51875,-0.0361927,-0.8980218,0.4097258
1710733202195,0.6774679,-6.7968125,-7.8813596,-0.09375,44.568752,14.19375,-0.3605526,1.3304254,0.28389126
1710733202303,0.1268196,-7.2589264,-8.290832,-0.26250002,44.287502,15.731251,-0.41369632,1.3304254,0.2582357
1710733202409,2.0901306,-4.8242297,-7.893324,-0.93750006,42.91875,18.45,-0.43385425,-0.22792238,0.12629268
1710733202514,1.7979071,-6.9332037,-6.7226353,-0.26250002,41.34375,20.962502,-0.70995724,3.3530169,0.90817714
1710733202623,4.287938,-4.8290153,-6.538388,-3.91875,39.84375,24.2625,-0.8480087,0.23334365,0.008399149
1710733202728,5.681159,-4.8912287,-9.394521,-7.5375004,37.331253,27.375002,-1.1051754,3.633396,0.6656708
1710733202834,6.815955,-4.618148,-2.695814,-14.681251,35.081253,27.075,-0.88099444,1.3854016,-0.7063685
1710733202940,6.650851,-3.1842487,-4.9917274,-20.5125,30.975,27.69375,-0.27503398,-0.32932302,-0.40209022
1710733203046,6.586244,-2.7508488,-4.409972,-21.4125,28.312502,30.13125,-0.31901497,-0.88275063,-0.27503398
1710733203157,8.388937,-2.9015965,-6.1528444,-20.643751,27.093752,31.2,0.0981937,1.4623684,0.608862
1710733203263,9.049655,-3.1316066,-5.0850472,-23.75625,29.681252,26.56875,0.74141586,2.5662458,-0.17668757
1710733203372,13.090834,-2.5833511,-2.882454,-29.156252,30.393751,19.087502,-0.008093726,-1.0672265,-0.94215554
1710733203479,13.313665,0.23449662,-2.7221348,-33.9,22.143751,21.300001,-1.964103,-0.4594335,-3.5468845
1710733203582,14.733207,1.8098712,-3.3565319,-37.237503,6.61875,25.556252,-0.727061,1.1819894,-2.980553
1710733203690,7.3713894,0.42861435,-0.7325028,-41.081253,-5.4750004,20.1,1.4256412,2.351151,-2.5786154
1710733203794,7.129714,4.788337,-3.1770704,-42.206253,-13.81875,10.03125,1.4109808,1.1422844,-1.6409647
1710733203902,2.3198416,4.510471,-5.348557,-40.912502,-20.475,5.625,1.478174,1.947381,-2.543797
1710733204010,2.3581266,4.0387855,-6.023632,-34.725002,-30.2625,1.8000001,0.8721372,0.3787253,-3.1705263
1710733204118,-4.189533,3.6245282,-2.0350957,-24.956251,-39.1875,4.1062503,1.1281586,1.3383664,-0.76745325
1710733204219,-2.1834507,5.1568317,-3.7875392,-21.45,-41.025,5.1937504,-0.113159455,3.6676033,-0.0013744063
1710733204328,-1.5179468,5.293223,-1.759622,-22.368752,-40.5,-2.53125,1.822081,4.456818,0.9240592
1710733204439,9.016156,27.493832,-6.509674,-25.10625,-38.7,-4.2375,-1.5663651,-2.2779257,2.2789948
1710733204546,1.7237296,9.164511,-3.7827535,-32.287502,-32.362503,-3.73125,-0.66719794,0.95170003,2.4927914
1710733204651,7.390532,6.3849483,-1.4964114,-37.912502,-23.1,-8.887501,-0.51815116,0.15026842,1.8989714
1710733204763,7.6109705,5.300401,-1.7835501,-42.2625,-13.81875,-12.3,-1.1680927,-0.45760095,1.888587
1710733204864,8.9013,4.929514,-1.4533406,-43.350002,-4.5375004,-15.000001,-1.218793,0.03420745,0.6833854
1710733204963,7.3043904,3.165106,-0.3807579,-42.881252,-0.4875,-16.95,-1.5651433,-0.33115557,-1.6421865
1710733205065,4.9103713,3.1316066,0.10767702,-43.350002,-6.6000004,-17.175001,-0.8852704,-0.43805385,-4.8864727
1710733205177,4.5008993,14.747564,-1.2616158,-33.506252,-26.475,-16.518751,1.2436087,2.672533,-4.2169843
1710733205284,-3.2679975,9.952348,7.2589264,-17.1,-39.45,-19.48125,-1.6848694,4.2155333,-4.009296
1710733205391,-2.975774,18.760029,-0.392722,-0.3375,-40.275,-22.612501,-0.41064206,3.1416638,-0.6904865
1710733205498,1.2664014,0.38554356,-3.1770704,4.2562504,-38.1375,-25.7625,-0.54563934,1.0488248,-0.19867808
1710733205607,0.35204405,14.357534,0.32333016,3.6937501,-37.275,-27.337502,0.2857238,3.0818007,0.7224796
1710733205705,-0.06699903,9.267701,0.22013968,6.9187503,-38.175003,-25.237501,0.40789327,0.8961129,1.0505046
1710733205817,-1.2472588,4.354937,0.44536412,5.025,-39.9375,-23.75625,-1.1063972,0.7458445,3.2435226
1710733205923,3.7636108,9.87817,1.879263,-0.75,-37.78125,-27.16875,-1.8358251,6.070142,0.5972559
1710733206028,-0.58893347,8.95155,5.729016,11.85,-32.98125,-29.85,-1.2664391,-1.4783267,-0.8358681
1710733206134,4.4985065,8.405686,3.856931,11.306251,-29.718752,-32.756252,-0.07956286,0.12949961,1.6356963
1710733206239,1.2951152,9.413663,3.1866415,7.5937505,-31.518751,-32.30625,0.16721943,-0.4246152,1.1262497
1710733206347,3.141178,7.8717885,4.8266225,2.5125,-32.15625,-32.41875,0.5746546,0.5870242,0.8751914
1710733206463,2.32702,6.3275204,4.54397,6.0375004,-34.143753,-30.16875,2.3559616,5.424476,-0.7369109
1710733206566,2.7173493,11.781362,0.72293156,17.625,-38.60625,-17.34375,0.16660859,3.9266026,-1.1339616
1710733206672,-7.4479594,6.5144596,11.434103,28.087502,-34.93125,-10.725,-0.96834564,1.8826313,-0.10888352
1710733206780,-0.47168517,6.7322063,4.508078,29.38125,-34.425003,-9.88125,-0.044744562,0.45691374,1.1958863
1710733206885,-2.8920252,8.3530445,5.3676996,25.893751,-36.768753,-9.075001,0.1873774,0.343907,0.7151494
1710733206991,0.019142581,8.3123665,5.2812586,23.60625,-39.09375,-5.8875003,0.4524851,0.8606838,0.8605311
1710733207099,-2.7293134,8.985049,3.1339993,20.94375,-40.912502,-3.075,0.071927264,0.40499175,0.34741938
1710733207208,-1.4581263,6.7537417,3.0020952,20.75625,-40.800003,-1.7062501,0.63635015,-0.47959146,-0.3721587
1710733207314,1.0797613,6.471389,7.0268226,21.975,-40.0875,-0.41250002,0.27900448,-1.6121023,-1.4754252
1710733207421,-5.5830536,5.860621,4.237689,29.437502,-34.537502,3.0937502,4.6137295,3.776334,-2.275635
1710733207528,-8.132606,10.849956,0.2009971,32.41875,-22.725,23.681252,2.6314538,3.368288,-2.316562
1710733207635,3.1746774,4.2999024,-13.42852,24.581251,-9.918751,38.025,3.2600155,6.685265,1.1781716
1710733207739,-0.8210373,0.5697909,-10.584352,1.95,4.6875,45.787502,2.4152138,4.500799,0.5092939
1710733207849,9.748658,-2.5354948,-7.8741813,-17.04375,9.618751,41.9625,-4.6781735,1.3878449,-4.400238
1710733207952,-2.42034,9.679267,1.4676976,-18.825,-14.400001,38.68125,-2.0025864,-1.7458779,-1.792455
1710733208061,-0.5673981,7.5846496,-6.708278,-11.85,-22.5375,39.15,0.5465556,-0.66956496,0.7157603
1710733208168,0.043070808,5.3940206,-5.604589,-10.931251,-19.5375,40.8375,1.2002385,0.29809347,-0.8346464
1710733208273,-5.992525,6.68435,-7.2397842,-7.9125004,-16.96875,42.75,-2.384366,-1.8423917,-2.2713592
1710733208379,-2.7269206,5.4179487,-4.5678983,2.6625001,-22.5375,40.425003,-2.4033022,-4.1710176,-1.7887899
1710733208486,-12.190833,6.538388,-0.3376871,19.556252,-25.931252,33.45,-0.3660502,-1.6261518,-1.9909803
1710733208594,-10.864312,2.4299114,-2.329413,33.09375,-21.50625,25.968752,-0.47844613,-1.2010021,-1.1926029
1710733208699,-8.216654,4.429115,-1.7668004,34.237503,-16.63125,25.875002,0.84281653,3.9113314,-1.7692428
1710733208804,-10.596316,-0.9936196,-5.638088,25.44375,-9.375,37.443752,1.5930133,0.89733464,-0.5188384
1710733208911,-6.3251276,2.8489544,-4.4817567,17.643751,-5.4187503,43.350002,0.19715095,3.3200312,-0.56343025
1710733209014,-4.3908296,4.0890346,-7.146464,7.4625,-4.8187504,46.0125,0.05054761,1.9608197,-0.3324536
1710733209124,-4.7425747,-2.1020947,-8.283653,-0.01875,-2.1937501,46.48125,0.08536591,1.9211147,0.5893149
1710733209229,0.2656033,-1.015155,-9.7654085,-10.837501,0.22500001,44.98125,0.5862607,4.216144,0.37857258
1710733209336,3.0933216,-3.5216367,-11.95843,-24.54375,3.43125,38.925003,3.5471137,-2.9481015,0.103691325
1710733209440,-2.5618157,-0.6056832,-8.455936,-19.275002,9.09375,41.30625,-0.35077903,-0.5834355,0.038941514
1710733209549,-2.4394827,-3.708576,-12.698411,-12.3,7.89375,44.60625,-1.6677657,-4.3512177,-2.1986682
1710733209654,-8.470293,-0.69900334,-5.616553,6.5625005,0.075,45.9,-2.4454505,-6.4245095,-1.1700016
1710733209764,-8.879765,-2.2576282,-5.532804,27.862501,-4.2562504,36.99375,0.26923093,-3.2516928,0.09941539
1710733209873,-9.851849,-0.8500503,-1.6734804,35.68125,-3.24375,28.575,-1.1870289,0.15882029,-0.24265908
1710733209972,-1.5514464,-2.1451654,-5.1233325,35.49375,-6.95625,28.425001,-3.4276931,1.5326158,-0.6391753
1710733210083,-0.2105684,-4.1177487,-1.0247263,34.631252,-11.887501,29.23125,-1.4246485,2.095206,-4.1192484
1710733210189,-5.657231,-10.263414,-4.1201415,35.1375,2.53125,31.687502,0.21791977,1.6853275,-4.3122764
1710733210294,-7.886145,-10.99861,-8.510971,24.843752,17.493752,35.925003,0.33947837,-0.076355904,-2.9469562
1710733210403,-1.8122641,-8.164012,-4.833801,18.393751,21.300001,37.65,0.42988375,-0.62985986,-1.3440931
1710733210510,-1.3214363,-9.368199,-9.346664,19.575,23.737501,35.86875,0.045049984,-1.7373259,-0.90611553
1710733210617,-2.7005994,-8.17119,-4.0890346,26.04375,23.962502,31.500002,0.316877,-3.7770214,-0.3837648
1710733210723,-5.2573304,-5.956633,-2.1834507,37.0875,24.206251,18.862501,0.7554653,-1.7861937,-0.03436016
1710733210829,2.559423,-10.586744,-3.6894333,38.90625,24.956251,11.90625,-0.26281703,0.009162709,-2.1192582
1710733210931,-3.246462,-9.459127,-4.709075,32.68125,31.10625,12.562501,-0.24265908,1.7714571,-1.8199431
1710733211046,-0.1268196,-9.552447,-4.007679,24.806252,36.675003,16.3125,0.90145785,2.403684,0.4317163
1710733211147,5.211867,-9.664909,-2.8034909,21.75,37.59375,17.8875,1.4928343,1.4348803,-0.12720895
1710733211254,5.4729834,-11.8028965,-2.4275186,17.25,40.237503,15.525001,2.0328233,1.007898,-0.9800281
1710733211359,0.14356937,-11.855539,-2.856133,9.431251,44.5125,10.59375,0.13973132,0.4550812,-2.7606478
1710733211465,0.3472584,-4.5655055,-0.30418757,-0.43125,45.037502,10.44375,-0.88099444,1.0030112,0.68949383
1710733211569,4.402794,-8.695218,-0.069391854,4.96875,45.825,10.556251,1.8373522,-0.78684765,1.8928629
1710733211674,2.894418,-2.7508488,2.4658036,12.431251,44.34375,2.625,-0.027029991,-1.3439404,-0.29274854
1710733211781,9.406485,-13.60559,-3.682255,13.14375,44.831253,-2.25,0.65162134,3.1147866,-0.96658945
1710733211888,0.40707895,-7.7066836,1.8026928,10.387501,45.525,-3.9375002,-0.08383878,-0.09529217,-0.42591324
1710733211997,0.8644072,-7.819146,0.9529416,7.0875,45.768753,-4.2000003,-0.7417213,-0.26884916,-0.3281777
1710733212096,1.1563315,-8.036893,-2.1738794,5.83125,46.725002,-1.2750001,-1.4014363,-1.2205492,0.22708246
1710733212206,5.3533425,-9.717552,-1.0510473,7.3125005,45.24375,5.7937503,-0.45584476,-1.7800853,1.2496408
1710733212311,3.112464,-10.294521,-4.112963,13.70625,43.0875,7.7625003,-0.39414918,-0.9566632,0.8183826
1710733212419,-0.57457656,-11.520544,-1.3190435,16.368752,42.881252,7.6687503,-0.67391723,-1.1301438,-1.1150253
1710733212524,1.462912,-8.6090765,-2.1571295,15.468751,42.787502,7.6312504,0.22341739,-0.83632624,0.8244911
1710733212629,2.2815564,-11.309676,-4.1057844,20.831251,41.175003,3.6750002,1.1251043,-1.4196854,0.9863656
1710733212737,-0.9601201,-10.388141,2.0207388,22.987501,39.9,-1.6125001,0.5508315,1.183822,0.13667707
1710733212842,-6.890133,-9.909277,3.3517463,24.0375,38.943752,-3.9375002,1.817805,-2.097115,0.62474406
1710733212949,3.0909286,-11.0608225,1.730908,20.925001,33.9375,-22.03125,2.162323,-0.9016869,0.37857258
1710733213053,1.3980067,-8.558827,5.044369,18.337502,27.7875,-32.193752,2.222797,0.6255076,-0.3306211
1710733213161,-3.114857,-5.61416,4.2592244,20.41875,18.54375,-36.65625,2.170264,0.77272177,0.7627955
1710733213265,-2.9159534,-5.030012,5.408377,25.06875,9.28125,-38.1375,1.0805124,0.13560809,0.7108735
1710733213371,-1.3453646,-4.7569313,6.5742803,23.493752,2.71875,-39.5625,0.5441122,-0.8277744,-0.2121167
1710733213478,-2.1475582,-4.237689,7.342675,20.025002,1.0500001,-41.71875,0.10430217,-0.22242476,0.26434416
1710733213585,-1.8170497,-4.5655055,9.030513,18.581251,0.075,-42.693752,0.040163208,0.05375456,0.16050012
1710733213692,-3.5048869,-7.2469625,11.249856,19.25625,-0.45000002,-41.625,-0.17302248,0.4691307,0.66689247
1710733213798,-2.2408783,-7.144071,11.644971,21.0,-0.75,-41.475002,0.043217443,0.3048128,0.2832804
1710733213904,-2.6862426,-5.6069818,9.190832,22.275002,-1.6875001,-39.73125,-0.12171131,0.04886778,-0.6080221
1710733214011,-3.0858438,-5.688338,8.398508,23.268751,0.63750005,-40.162502,-0.67819315,-0.19921257,-0.8267054
1710733214118,-1.8122641,-6.823134,7.993822,21.75,6.15,-40.29375,-0.8620582,-0.06230642,-1.1021975
1710733214221,-0.907478,-8.075178,7.2397842,20.306252,11.887501,-39.5625,-0.9689565,-0.16248538,-1.3917391
1710733214329,1.0103694,-8.587542,7.4790664,16.7625,18.7875,-38.550003,-1.3238587,-0.28656372,-1.9671572
1710733214434,1.07019,-7.294819,5.8821564,11.493751,26.19375,-36.131252,-0.7936433,-0.77157646,-2.0936027
1710733214543,3.2273195,-6.1097736,3.3182468,-0.20625001,31.406252,-34.537502,-0.4033119,-1.5711755,-1.8156672
1710733214649,5.1640105,-4.733003,2.1738794,-10.200001,31.650002,-32.34375,-0.48516545,-1.0873845,-1.1290748
1710733214752,7.373782,-5.154439,2.044667,-17.625,31.7625,-29.718752,-0.05635066,-0.99697906,-0.40514445
1710733214861,7.6085777,-5.2286167,1.8984057,-20.53125,30.712502,-27.487501,-0.039857782,0.43492326,0.15744588
1710733214966,7.105786,-5.4466624,2.2073789,-19.5,31.181252,-28.10625,-0.028862532,0.31825143,0.37429667
1710733215072,7.699505,-5.539983,2.5354948,-17.00625,31.462502,-28.931252,-0.17363334,0.45141613,0.37796175
1710733215178,6.0308104,-6.8303123,2.6072793,-14.7375,33.112503,-28.63125,-0.42224815,0.55648184,0.2814479
1710733215283,6.1600227,-7.8167534,2.8202405,-11.83125,34.78125,-28.087502,-0.33550787,0.38849884,0.6259657
1710733215390,5.302794,-8.032107,2.6575286,-8.53125,36.35625,-27.31875,-0.32268006,0.679873,0.20264858
1710733215498,5.2238307,-8.853444,3.3589249,-5.775,37.65,-26.325,-0.2921377,0.40743512,0.16233265
1710733215605,4.5535417,-8.226225,3.016452,-4.5750003,38.0625,-25.518751,-0.26403874,0.3170297,0.08842014
1710733215712,5.183153,-8.398508,2.7675984,-3.4875002,38.625,-25.25625,-0.20661908,-0.012216945,0.07559235
1710733215818,4.469793,-8.697611,2.6407788,-3.91875,39.54375,-24.35625,-0.074676074,-0.19058435,0.04688253
1710733215924,4.5296135,-8.070393,1.8960128,-2.86875,39.018753,-22.931252,-0.1565296,-0.14049487,0.14156385
1710733216030,4.3357944,-8.532506,2.2959132,-3.45,40.350002,-23.081251,-0.09361234,-0.35803285,0.28083703
1710733216135,6.346663,-8.376973,1.8912272,-2.25,40.443752,-23.081251,0.0029015245,-0.018325418,0.05971032
1710733216243,4.359723,-8.613862,0.8452646,-1.7625,40.331253,-22.5375,-0.11987878,0.2547233,-0.056961507
1710733216347,3.2321053,-8.022536,2.300699,-0.28125,40.237503,-21.900002,0.008399149,0.39216393,0.20448112
1710733216452,5.432306,-8.40808,3.275176,-0.80625004,40.443752,-22.5,0.23196925,0.54976255,-0.3245126
1710733216559,4.6492543,-9.97149,1.975275,0.0375,40.331253,-22.612501,-0.406977,-0.1551552,0.0077883024
1710733216664,5.729016,-8.266903,2.626422,-0.1875,40.3125,-21.768751,0.0077883024,0.002443389,-0.34711397
1710733216772,3.1890345,-8.8701935,2.7556343,-0.15,41.11875,-21.65625,0.22524993,0.75806147,-0.0013744063
1710733216877,2.9183464,-8.166405,2.691028,1.3125,39.956253,-22.837502,0.1085781,-0.6445202,0.16844113
1710733216982,5.3533425,-8.23819,2.6312077,0.3375,39.975002,-22.987501,-0.029473381,-0.9670476,0.028557109
1710733217087,3.7037904,-7.7353973,0.4645067,-0.73125005,40.18125,-23.15625,-0.53403324,-0.076355904,0.37857258
1710733217190,4.2831526,-8.73141,2.1571295,0.0375,41.081253,-20.7,-0.65986776,-0.19486028,0.12995775
1710733217298,3.2727833,-8.697611,0.91226363,0.69375,42.581253,-17.175001,-0.52670306,0.6737645,0.28633466
1710733217399,3.9023945,-10.258629,0.2416751,2.1750002,42.768753,-16.40625,-0.3721587,0.527772,0.46348035
1710733217507,2.8776684,-9.257831,1.6854445,4.55625,44.68125,-12.843751,0.056656085,1.7586292,0.8055548
1710733217605,2.7915268,-9.581161,0.49082774,8.793751,44.0625,-10.9875,-0.072232686,0.18447587,0.35291702
1710733217710,3.3086755,-9.253045,-0.32333016,10.3125,43.18125,-11.212501,-0.2518218,-0.017714571,-0.12048962
1710733217811,2.9183464,-9.866206,0.09332009,10.2375,44.475002,-9.918751,-0.35688752,0.532048,-0.19684553
1710733217914,1.3669,-8.439186,0.44057846,8.868751,43.912502,-7.7812505,-0.46073154,0.63161606,0.17882554
1710733218026,1.9151554,-8.932407,0.6678966,9.09375,44.4375,-4.875,-0.25121093,-0.3146627,0.0762032
1710733218138,3.0236306,-9.978668,-0.033499517,9.543751,44.34375,-4.33125,0.18371232,-0.21570544,0.07681404
1710733218246,3.0355947,-9.23151,-1.625624,9.806251,44.775,-5.55,-0.12904148,-1.3243933,-0.012980504
1710733218354,2.6072793,-9.84467,-2.6072793,9.075001,44.550003,-6.9,-0.62260604,-0.8204442,0.11529742
1710733218456,3.2727833,-8.451151,-2.3868406,8.7375,45.693752,-4.03125,-1.038593,-0.5339569,-0.16141638
1710733218564,3.301497,-10.43839,-3.7851462,7.5375004,45.75,-0.112500004,-0.44546035,0.6603259,-0.83708984
1710733218670,-0.83778703,-8.453544,-2.0901306,4.65,45.825,3.0937502,0.5471664,-0.30611083,0.3284831
1710733218778,4.371687,-9.763016,-3.3852458,6.4687505,45.9,0.975,0.24296449,-1.0953255,0.49402273
1710733218885,0.076570325,-7.359425,-3.423531,8.71875,45.206253,0.24375,-0.050853033,-1.6915125,0.72919893
1710733218989,4.9055853,-11.0608225,-2.42034,9.918751,44.86875,-1.7062501,-0.6183301,-3.0091863,-0.81326675
1710733219093,1.1467602,-9.056833,-5.4107704,7.6125,45.35625,-1.5,-0.45462307,0.56442285,-0.66910684
1710733219202,0.83060855,-9.789336,-3.4354951,4.275,45.9,0.35625002,-0.16385978,-0.7648571,-0.4460712
1710733219309,2.6216364,-9.253045,-5.7816577,1.95,46.068752,2.4375,-0.39048412,0.19180603,-0.46195325
1710733219414,-0.19381863,-7.1010003,-6.1504517,0.31875002,46.125,3.6562502,-0.12048962,0.3738385,-0.103385895
1710733219523,5.3940206,-9.29163,-6.7058854,-0.76875,46.256252,4.8187504,-0.6574244,0.29809347,-0.06734591
1710733219619,3.0355947,-8.276474,-2.8609185,0.24375,45.35625,6.9187503,-0.36238512,0.029320668,0.045049984
1710733219728,3.6846478,-8.819944,-4.618148,-0.31875002,45.487503,8.85,0.32176378,-0.42889112,-0.3538333
1710733219838,1.0055838,-8.587542,-5.07069,-1.6875001,45.375,8.418751,0.14339639,-1.2144407,-0.100331664
1710733219947,1.2496517,-9.6529455,-5.901598,-0.90000004,45.6375,7.89375,0.41583428,-0.32138202,0.4097258
1710733220052,0.90508515,-8.132606,-6.8255267,1.0125,45.0,4.9875,0.13362284,-0.28534204,-0.008093726
1710733220159,1.3046865,-6.727421,-7.534101,1.1437501,45.075,5.7937503,-0.06795676,-0.05314371,0.9973609
1710733220265,4.2257247,-8.233403,-7.1512494,3.3375,45.0,7.9875,-1.2578872,-0.09529217,-0.79860646
1710733220371,3.251248,-7.3043904,-6.0403814,-0.88125,44.100002,12.637501,-0.6397098,1.759851,-0.76745325
1710733220476,5.1879387,-5.549554,-5.705087,-6.20625,43.125,15.1125,-0.097277425,2.3242738,-0.6348994
1710733220581,3.950251,-8.56122,-2.8345976,-11.137501,43.125,12.225,0.6717793,2.7268984,0.31199023
1710733220690,5.171189,-5.61416,-5.0132627,-11.418751,44.100002,7.36875,0.109188944,0.56503373,0.21608722
1710733220795,6.4471617,-5.6333027,-3.165106,-9.543751,44.49375,6.80625,-0.28114244,0.9914051,1.037066
1710733220900,3.8641095,-8.925228,-1.1204392,-5.9812503,45.131252,6.9,-0.37948886,1.1172396,1.0309575
1710733221008,3.4259238,-6.586244,-2.6718855,-2.0625,45.300003,8.1,-0.36788276,-1.0324082,0.2509055
1710733221114,5.915955,-7.929216,-1.7213368,1.48125,45.46875,7.93125,0.03466558,-1.9993794,-0.31107396
1710733221218,5.3147583,-7.6947193,-2.9949167,1.81875,45.61875,7.0125003,0.10552386,1.4642009,-0.44423866
1710733221328,4.345366,-9.863813,-2.1068804,-0.69375,45.075,7.275,-0.075897776,2.521654,-0.9018396
1710733221436,5.7170515,-7.850253,-0.078963146,-4.5,45.15,6.1125,0.27595025,0.24189551,-0.24388076
1710733221540,4.6636114,-8.235796,-2.0494525,-5.25,45.9375,4.7625003,-0.018478129,-0.25479966,0.6931589
1710733221649,5.4227343,-8.192725,-1.7165512,-2.5687501,45.581253,4.8375,0.1965401,-1.6542507,0.043217443
1710733221754,3.4331024,-9.131011,-2.626422,-0.46875003,45.24375,4.93125,-0.97628665,-0.46065518,1.1665655
1710733221860,5.8821564,-7.6396847,-3.030809,3.73125,44.456253,9.525001,-0.39414918,-0.5651101,0.2973299
1710733221964,3.9526439,-8.458329,-4.752146,7.0125003,44.081253,11.625,-0.5242597,0.66276926,0.33703497
1710733222073,1.6328024,-8.058429,-4.2568316,6.7312503,42.5625,14.493751,-0.30985227,-0.04459185,-0.16996825
1710733222181,2.8704898,-8.077571,-4.26401,5.775,42.318752,14.868751,0.14156385,-0.36719555,-0.09849912
1710733222288,4.0100718,-9.763016,-3.114857,5.925,43.55625,14.64375,0.22769332,-0.19424942,0.46042612
1710733222393,1.9007984,-8.745767,-4.196712,8.887501,43.78125,13.2375,0.17638214,-0.6701758,0.6962132
1710733222501,0.8428718,-9.260523,-4.9725847,12.281251,42.7125,11.64375,0.005955761,-0.85220826,0.52273256
1710733222608,1.6328024,-7.6660056,-3.72054,15.31875,42.412502,10.14375,-0.32512346,-0.37513658,0.09513946
1710733222711,2.8345976,-8.336295,-3.7301114,17.53125,41.193752,10.743751,-0.17546588,0.08185353,0.07314896
1710733222818,0.39750767,-8.961121,-4.6372905,17.081251,41.5125,12.075001,-0.12720895,0.32985753,0.27900448
1710733222927,-1.6136597,-7.8717885,-5.6117673,17.75625,41.081253,12.50625,-0.062459134,0.0775776,0.34680852
1710733223033,0.4429713,-8.7577305,-4.1177487,18.712502,40.18125,12.6,-0.08261709,-0.64207685,-0.36360684
1710733223138,-0.96490574,-5.341378,-6.1648083,18.581251,40.706253,11.15625,0.30832514,-3.750144,-0.656279
1710733223243,-0.34965122,-8.891729,-3.7731822,17.775002,43.03125,5.2312503,0.13912046,-1.0153044,0.06642964
1710733223347,-0.86201435,-9.471091,-4.179962,18.73125,42.487503,3.0937502,-0.010537115,0.23761958,0.24479704
1710733223455,-1.393221,-8.156834,-4.402794,19.556252,42.018753,3.35625,-0.017256435,0.6810947,0.30466008
1710733223562,-1.3692927,-9.906884,-4.278367,21.35625,40.0125,5.49375,-0.2145601,-0.03970507,-0.3153499
1710733223668,-0.86919284,-8.67129,-3.8952162,20.775002,40.18125,6.3,-0.16569231,0.71530217,-0.007482879
1710733223774,-1.0103694,-7.158428,-6.0308104,19.96875,40.443752,9.056251,-0.28236416,2.3627572,0.30221668
1710733223879,0.9098708,-8.827123,-4.4075794,19.556252,39.28125,12.731251,0.14583978,0.26510772,0.3345916
1710733223987,-0.10767702,-8.525328,-4.8433723,20.00625,38.943752,12.58125,0.31626618,0.42942563,0.30404922
1710733224092,0.9912268,-8.874979,-4.1368914,20.118752,39.05625,13.06875,0.28633466,0.45691374,-0.54815906
1710733224200,2.3150558,-10.483853,-1.8649062,18.825,40.162502,12.31875,1.4574052,1.3566917,-0.0019852535
1710733224306,4.342973,-10.943574,0.42622152,13.762501,43.0875,8.925,2.4488103,2.82891,-0.77050745
1710733224411,1.89362,-9.801301,-0.34965122,7.5750003,45.65625,-0.41250002,0.848925,3.9614208,0.9032904
1710733224515,1.0007981,-7.6133633,0.4429713,10.743751,44.7,-2.8500001,1.0230927,1.5491086,1.1543486
1710733224622,2.6216364,-7.5460653,3.289533,14.981251,42.43125,-5.0625,1.2509388,-1.2596434,-2.111928
