timestamp,accelerometer_x,accelerometer_y,accelerometer_z,magnetometer_x,magnetometer_y,magnetometer_z,gyroscope_x,gyroscope_y,gyroscope_z
1710733110057,0.011971008,-0.41180268,9.196129,-2.58,16.56,-46.62,-0.0031957934,-0.014913702,-0.03568636
1710733110168,-0.019153614,0.30645782,9.437943,-3.1799998,15.719999,-46.32,-0.004261058,0.002130529,0.010652645
1710733110266,0.16998832,-0.2705448,9.428367,-2.7,16.38,-46.739998,5.326322E-4,-0.002130529,0.0
1710733110366,-0.0023942017,0.2753332,9.43076,-2.9399998,16.8,-47.039997,0.0037284256,0.0,-0.013848438
1710733110468,0.045489833,-0.08140286,9.43076,-3.0,16.08,-46.62,0.006924219,0.0031957934,5.326322E-4
1710733110574,0.045489833,0.050278235,9.425972,-2.7,16.26,-46.92,0.0015978967,0.0,-0.002130529
1710733110680,0.06703765,-0.007182605,9.428367,-3.6599998,16.8,-46.62,-0.004261058,5.326322E-4,0.0026631611
1710733110778,0.07182605,-0.0023942017,9.425972,-3.24,16.26,-46.26,-5.326322E-4,-0.0015978967,-0.0037284256
1710733110888,0.08619126,0.079008654,9.41879,-3.36,16.8,-46.5,-0.002130529,0.0026631611,-0.002130529
1710733110988,0.07182605,0.0047884034,9.433155,-2.46,16.5,-47.16,-0.007456851,0.00479369,-0.0031957934
1710733111089,0.09816227,0.08379706,9.43076,-2.52,16.02,-46.739998,-0.0026631611,-0.0031957934,5.326322E-4
1710733111197,0.08619126,-0.045489833,9.461885,-3.3,16.02,-47.28,-0.0026631611,-0.0063915867,-0.002130529
1710733111302,0.10295067,0.20111294,9.44752,-3.0,16.859999,-45.84,0.004261058,-0.0026631611,0.0037284256
1710733111403,0.10534488,0.009576807,9.433155,-3.3,15.54,-46.86,-0.00479369,5.326322E-4,0.0031957934
1710733111512,0.090979666,0.10295067,9.428367,-2.22,16.68,-46.44,-0.012250541,-0.0031957934,-0.002130529
1710733111612,0.093373865,0.033518825,9.428367,-3.06,16.56,-46.02,-0.0026631611,-0.0037284256,0.002130529
1710733111713,0.059855044,0.0023942017,9.437943,-3.48,15.48,-46.559998,-5.326322E-4,-0.0010652645,5.326322E-4
1710733111816,0.06464344,0.08619126,9.44752,-2.82,16.619999,-46.32,5.326322E-4,0.0010652645,-5.326322E-4
1710733111919,0.06464344,0.02873042,9.44752,-2.76,16.619999,-47.399998,-0.00479369,-0.00958738,-5.326322E-4
1710733112024,0.08140286,0.031124622,9.440337,-3.06,16.38,-46.68,-5.326322E-4,-0.0010652645,0.0015978967
1710733112128,0.088585466,0.009576807,9.440337,-2.9399998,17.1,-46.92,-5.326322E-4,5.326322E-4,0.0015978967
1710733112230,0.062249243,0.04309563,9.44752,-3.0,16.14,-46.739998,5.326322E-4,0.0015978967,0.0026631611
1710733112337,0.08379706,0.01436521,9.449914,-2.3999999,16.26,-45.42,-5.326322E-4,5.326322E-4,-5.326322E-4
1710733112439,0.009576807,-0.10534488,9.454702,-3.0,15.78,-46.62,-0.0031957934,-0.0010652645,-0.007456851
1710733112543,0.2873042,0.6464345,9.404425,-3.6,16.199999,-46.44,5.326322E-4,0.0053263223,0.004261058
1710733112650,0.05267244,-0.08379706,9.442732,-3.12,16.02,-45.96,0.002130529,5.326322E-4,0.011185277
1710733112755,0.021547815,0.15083471,9.44752,-3.24,16.02,-46.44,-0.002130529,0.0,0.0015978967
1710733112859,0.11252748,0.01436521,9.437943,-3.12,16.44,-46.98,5.326322E-4,-5.326322E-4,0.0063915867
1710733112966,0.1340753,-0.02873042,9.440337,-3.1799998,16.38,-46.559998,0.0,0.002130529,0.0
1710733113072,0.059855044,0.1364695,9.454702,-3.36,16.56,-46.079998,-0.0026631611,0.0,0.007456851
1710733113181,0.08619126,-0.050278235,9.445126,-2.04,16.68,-46.379997,0.0,0.002130529,-0.0031957934
1710733113270,0.074220255,0.10055647,9.440337,-2.6399999,16.56,-46.62,0.002130529,0.0015978967,-0.0015978967
1710733113377,-0.23942018,-0.46926352,9.55047,-3.6,16.26,-46.5,-0.002130529,0.004261058,-0.02876214
1710733113483,0.50996494,1.103727,9.425972,-3.06,16.8,-46.559998,-0.013315806,-0.0127831735,-0.19813919
1710733113588,0.02633622,-0.033518825,9.454702,-2.52,16.74,-46.86,0.0,0.0031957934,0.009054748
1710733113686,0.10534488,-0.50517654,9.526528,-1.68,16.859999,-46.26,0.011185277,0.018642128,0.5400891
1710733113787,0.48362875,0.81163436,9.404425,-1.0799999,17.039999,-46.5,-0.007456851,-0.0053263223,0.012250541
1710733113889,0.06943185,-0.05746084,9.466674,-0.35999998,16.56,-44.82,5.326322E-4,0.0026631611,-0.009054748
1710733114001,0.08619126,0.06703765,9.442732,-0.29999998,15.96,-45.3,5.326322E-4,5.326322E-4,-0.0015978967
1710733114107,0.090979666,0.05746084,9.44752,0.35999998,16.56,-45.18,-5.326322E-4,0.002130529,5.326322E-4
1710733114208,0.074220255,-0.0047884034,9.44752,0.35999998,17.16,-45.84,0.0,0.0015978967,-0.002130529
1710733114314,0.093373865,0.05267244,9.294291,0.06,17.4,-45.78,-0.0058589545,-0.0063915867,-0.0026631611
1710733114422,0.08619126,0.021547815,9.469068,-0.17999999,16.5,-46.379997,-5.326322E-4,0.0,-0.0031957934
1710733114525,0.059855044,-0.023942016,9.440337,-0.42,16.92,-45.719997,0.0031957934,0.009054748,-0.0053263223
1710733114624,0.088585466,0.031124622,9.449914,-0.06,17.039999,-45.96,0.002130529,0.0015978967,-0.002130529
1710733114730,0.06943185,0.02633622,9.440337,-0.29999998,16.38,-45.719997,-0.0010652645,0.0,-5.326322E-4
1710733114839,0.08379706,0.033518825,9.454702,-0.42,17.16,-45.539997,-5.326322E-4,-0.0010652645,0.0031957934
1710733114946,0.1340753,0.0047884034,9.445126,-1.02,16.74,-45.48,-5.326322E-4,-0.0037284256,-0.010652645
1710733115054,0.6440403,0.25857377,9.524135,-0.35999998,18.06,-44.82,-0.002130529,0.006924219,-0.4048005
1710733115156,-1.8890251,-0.7685388,9.428367,-2.22,18.42,-45.12,0.0063915867,0.027696876,-0.33981937
1710733115255,0.090979666,-0.01436521,9.483433,-3.36,18.48,-45.12,-5.326322E-4,5.326322E-4,-0.0026631611
1710733115363,-0.0023942017,0.031124622,9.454702,-2.76,18.9,-45.899998,5.326322E-4,0.0037284256,0.0
1710733115473,0.035913024,0.019153614,9.445126,-3.24,18.119999,-44.879997,0.004261058,0.002130529,-0.00479369
1710733115578,0.05746084,0.0023942017,9.440337,-2.34,18.24,-44.76,-0.002130529,-0.0037284256,0.0
1710733115678,0.059855044,0.016759412,9.445126,-3.0,18.539999,-44.82,0.0063915867,0.018642128,-0.0026631611
1710733115783,-0.011971008,0.033518825,9.452309,-2.46,18.66,-45.0,-0.0063915867,-0.017576864,0.011185277
1710733115889,0.24181437,-0.031124622,9.409213,-3.24,18.779999,-44.52,-0.041545313,-0.111852765,0.027164243
1710733115995,-0.0047884034,0.021547815,9.454702,-3.48,18.359999,-45.239998,-0.002130529,-0.00479369,0.01917476
1710733116102,0.12689269,0.031124622,9.442732,-3.1799998,18.84,-44.94,0.0037284256,0.010120012,0.0026631611
1710733116205,0.10534488,-0.019153614,9.445126,-2.58,19.08,-44.399998,0.015978966,0.049534798,-5.326322E-4
1710733116312,0.11252748,-0.009576807,9.452309,-2.82,18.539999,-44.94,0.0,-0.0015978967,-0.0015978967
1710733116413,0.08619126,0.016759412,9.440337,-3.0,18.72,-44.82,-0.0010652645,5.326322E-4,-0.0010652645
1710733116521,0.06703765,0.035913024,9.445126,-2.7,18.3,-45.18,-0.0058589545,-0.01438107,0.0
1710733116625,0.08619126,0.062249243,9.44752,-2.1599998,18.72,-44.879997,-0.0031957934,-0.007456851,5.326322E-4
1710733116731,0.095768064,-0.011971008,9.440337,-3.06,18.9,-45.239998,-0.0053263223,-0.016511599,0.0
1710733116837,0.12210429,-0.007182605,9.445126,-2.8799999,18.96,-44.64,-0.0026631611,-0.0058589545,-0.002130529
1710733116943,0.12210429,0.01436521,9.43076,-2.82,19.08,-44.82,-0.007989483,-0.02396845,-5.326322E-4
1710733117047,0.1340753,0.011971008,9.425972,-2.8799999,19.08,-44.879997,-0.011185277,-0.027696876,-5.326322E-4
1710733117151,0.1436521,0.0047884034,9.440337,-3.6599998,19.08,-45.0,-0.002130529,-0.0063915867,-5.326322E-4
1710733117253,0.1412579,-0.011971008,9.442732,-3.36,18.6,-45.539997,0.0037284256,0.008522116,-0.0015978967
1710733117362,0.15562311,0.007182605,9.442732,-2.76,18.9,-44.879997,0.006924219,0.021837922,-0.0010652645
1710733117460,0.1340753,-0.0023942017,9.437943,-3.36,18.42,-45.239998,0.00479369,0.01917476,-0.0010652645
1710733117572,0.1388637,0.0,9.435549,-3.24,19.02,-45.48,0.0010652645,-0.002130529,-0.0010652645
1710733117677,0.12928689,-0.011971008,9.440337,-1.9799999,19.32,-44.94,0.0010652645,0.00479369,5.326322E-4
1710733117779,0.1436521,-0.01436521,9.435549,-2.6399999,19.199999,-44.7,-0.002130529,-0.0063915867,-0.0031957934
1710733117884,0.1388637,0.023942016,9.435549,-2.58,18.779999,-44.76,5.326322E-4,0.011185277,0.0
1710733117987,0.1364695,0.0047884034,9.428367,-3.24,18.9,-44.579998,0.010120012,0.021837922,0.0015978967
1710733118096,0.11252748,-0.016759412,9.440337,-3.12,18.359999,-44.76,0.0,5.326322E-4,-0.0015978967
1710733118199,0.12449849,-0.009576807,9.423578,-3.06,18.539999,-44.7,0.00479369,0.009054748,5.326322E-4
1710733118303,0.11971009,0.007182605,9.445126,-2.82,18.84,-44.879997,5.326322E-4,5.326322E-4,0.002130529
1710733118399,0.12449849,-0.007182605,9.428367,-3.1799998,19.199999,-44.879997,0.0053263223,0.017576864,-5.326322E-4
1710733118522,0.12928689,0.02873042,9.433155,-2.82,19.199999,-45.059998,0.0053263223,0.017576864,-0.0010652645
1710733118619,0.17956513,-0.011971008,9.437943,-3.12,19.32,-44.7,0.0010652645,0.0037284256,0.012250541
1710733118715,0.15083471,0.0047884034,9.43076,-2.8799999,19.5,-45.539997,0.0037284256,0.004261058,0.0026631611
1710733118822,0.12449849,-0.011971008,9.437943,-3.06,19.14,-44.28,0.0037284256,0.0127831735,-0.0010652645
1710733118931,0.11492168,0.0,9.428367,-2.8799999,18.779999,-45.12,0.0015978967,-0.0010652645,5.326322E-4
1710733119040,0.12449849,0.021547815,9.428367,-2.6399999,19.68,-44.64,0.0010652645,0.0037284256,-5.326322E-4
1710733119146,0.12928689,0.0,9.440337,-3.0,18.6,-45.0,-0.007989483,-0.024501082,5.326322E-4
1710733119251,0.1604115,-0.0023942017,9.449914,-3.36,18.359999,-44.46,-0.0031957934,-0.00479369,0.0
1710733119357,0.20111294,-0.016759412,9.428367,-3.84,18.3,-44.1,-0.010652645,-0.03355583,5.326322E-4
1710733119466,0.19153613,-0.011971008,9.435549,-3.54,18.779999,-44.76,-0.0015978967,-0.007456851,0.0010652645
1710733119563,0.20111294,-0.04309563,9.423578,-3.3,19.02,-44.28,0.0010652645,-0.0037284256,-0.0026631611
1710733119673,0.2801216,0.009576807,9.428367,-4.38,19.08,-44.28,-0.009054748,-0.026631612,0.009054748
1710733119778,0.06703765,-0.090979666,9.459491,-3.78,18.84,-45.18,0.070307456,0.21518342,0.00479369
1710733119883,1.0414777,0.4237737,9.469068,-2.82,18.96,-44.7,0.076166406,0.2082592,0.14913702
1710733119990,0.07182605,-0.009576807,9.478644,-1.92,18.24,-44.34,0.010652645,0.022903185,-0.0037284256
1710733120098,0.035913024,0.047884032,9.433155,-1.74,19.26,-44.219997,5.326322E-4,0.0058589545,-0.0015978967
1710733120203,0.06943185,0.19393034,9.435549,-2.22,18.84,-44.7,0.002130529,0.0058589545,0.0010652645
1710733120308,0.059855044,0.021547815,9.433155,-2.22,19.02,-44.94,0.002130529,5.326322E-4,-0.0053263223
1710733120414,0.0,0.08619126,9.440337,-1.92,18.84,-45.3,-0.0026631611,0.004261058,-5.326322E-4
1710733120520,0.033518825,0.055066638,9.437943,-2.82,18.359999,-45.48,0.0063915867,0.0037284256,5.326322E-4
1710733120622,0.08619126,0.05746084,9.425972,-2.04,18.96,-44.94,0.0010652645,0.004261058,0.0037284256
1710733120730,0.08379706,0.16759412,9.437943,-1.8,19.199999,-44.76,0.0010652645,0.0031957934,-0.0010652645
1710733120834,0.021547815,-0.033518825,9.442732,-2.3999999,18.24,-45.6,0.00479369,0.0053263223,-0.0026631611
1710733120937,0.02873042,-0.019153614,9.445126,-2.1599998,18.539999,-44.64,0.0015978967,0.004261058,0.0010652645
1710733121044,0.093373865,0.062249243,9.421184,-2.1599998,18.72,-44.82,0.002130529,0.004261058,0.0031957934
1710733121147,0.0047884034,0.076614454,9.25359,-2.1599998,19.68,-45.0,0.0,0.00479369,0.10173275
1710733121249,0.47165772,-0.05746084,9.349358,-1.14,18.3,-44.94,-0.0628506,-0.14274544,0.27696875
1710733121357,0.011971008,-0.033518825,9.435549,-0.71999997,18.359999,-45.6,0.0,-0.00479369,-0.0010652645
1710733121468,0.12210429,0.093373865,9.454702,-0.59999996,18.539999,-45.18,0.0058589545,0.015446335,0.0026631611
1710733121569,0.24420857,-0.050278235,9.528923,-1.02,18.3,-45.3,0.004261058,0.01917476,-0.0031957934
1710733121683,-0.02633622,0.12689269,9.44752,-0.71999997,18.72,-45.36,0.0037284256,-5.326322E-4,-5.326322E-4
1710733121783,-0.050278235,-0.22266077,9.406818,-1.38,19.14,-44.46,0.03355583,0.08042747,0.41598576
1710733121889,0.2633622,0.016759412,9.433155,-0.24,18.9,-44.34,0.004261058,0.0058589545,-0.002130529
1710733121985,1.0414777,0.23942018,9.471462,-0.53999996,19.38,-45.12,0.16405073,0.505468,0.14008227
1710733122082,0.023942016,-0.14604631,9.643845,-0.17999999,18.6,-44.579998,0.24341293,0.61572284,0.0010652645
1710733122183,0.19871874,0.28491,9.263166,0.42,18.96,-45.6,0.027164243,0.06018744,0.007456851
1710733122288,0.031124622,-0.074220255,9.392453,0.59999996,19.5,-45.42,-0.0015978967,-0.006924219,0.011717909
1710733122390,0.15562311,0.14604631,9.411607,0.78,19.14,-44.879997,5.326322E-4,0.0053263223,0.008522116
1710733122495,0.0047884034,-0.009576807,9.442732,0.59999996,18.9,-45.48,0.0015978967,0.0026631611,0.00479369
1710733122620,-0.038307227,-0.06464344,9.442732,-0.12,18.3,-45.66,0.0015978967,0.0015978967,-0.0010652645
1710733122675,0.1388637,0.10295067,9.433155,-0.17999999,19.08,-45.059998,0.0015978967,0.004261058,-0.004261058
1710733122801,0.093373865,0.04309563,9.433155,-0.71999997,19.199999,-45.66,5.326322E-4,0.0026631611,-0.0031957934
1710733122901,0.01436521,-0.05267244,9.452309,0.29999998,18.779999,-45.719997,-5.326322E-4,0.0053263223,-0.00479369
1710733123002,-0.15322891,-0.20829555,9.469068,0.0,19.68,-45.48,0.0010652645,0.006924219,-0.0026631611
1710733123107,0.30406362,0.37828386,9.425972,0.0,18.84,-45.12,5.326322E-4,0.00958738,0.01917476
1710733123208,0.095768064,-0.33279404,9.409213,0.53999996,18.3,-45.12,-0.0015978967,-5.326322E-4,-0.018109497
1710733123311,-0.24660277,0.2801216,9.469068,-0.06,17.94,-45.18,0.0037284256,0.0053263223,-0.02396845
1710733123411,0.33758244,-0.37349546,9.43076,0.06,19.38,-44.04,0.0031957934,0.0037284256,0.0026631611
1710733123513,-0.055066638,0.35673606,9.442732,0.42,18.84,-44.82,0.002130529,5.326322E-4,0.0010652645
1710733123618,0.016759412,-0.050278235,9.449914,0.06,18.6,-45.539997,5.326322E-4,0.007989483,-0.007456851
1710733123718,0.11492168,-0.021547815,9.459491,-0.24,19.32,-44.579998,0.0,0.00479369,0.0010652645
1710733123824,0.11731588,-0.016759412,9.449914,0.78,19.619999,-44.28,0.004261058,0.004261058,-0.0031957934
1710733123929,0.093373865,-0.023942016,9.442732,0.42,18.72,-44.7,-5.326322E-4,0.0031957934,-0.002130529
1710733124031,0.06464344,0.10534488,9.44752,0.78,18.779999,-45.66,0.0015978967,0.004261058,-0.0037284256
1710733124136,0.011971008,-0.02873042,9.449914,0.06,19.14,-45.239998,0.002130529,0.0037284256,-0.0031957934
1710733124235,0.062249243,0.047884032,9.43076,0.29999998,19.14,-44.64,0.0015978967,0.004261058,0.0015978967
1710733124333,0.088585466,0.04309563,9.442732,0.0,18.96,-45.539997,0.002130529,0.00479369,-0.0026631611
1710733124433,0.055066638,-0.007182605,9.437943,0.35999998,18.779999,-44.82,0.004261058,0.0037284256,-0.0015978967
1710733124538,0.06464344,0.06703765,9.454702,0.12,18.96,-44.879997,0.004261058,0.0053263223,-0.0015978967
1710733124642,0.05267244,0.009576807,9.445126,0.24,18.84,-44.7,0.0010652645,0.004261058,-5.326322E-4
1710733124744,0.06703765,0.033518825,9.452309,0.9,19.26,-45.48,0.0026631611,0.0058589545,0.0015978967
1710733124843,0.06943185,0.045489833,9.452309,0.0,19.14,-45.239998,0.0015978967,0.0037284256,-5.326322E-4
1710733124952,0.059855044,-0.007182605,9.449914,-0.12,19.5,-45.66,0.0015978967,0.0058589545,-5.326322E-4
1710733125059,0.074220255,0.02873042,9.445126,0.35999998,18.539999,-44.879997,0.0015978967,0.004261058,0.0
1710733125162,0.074220255,0.019153614,9.459491,-0.17999999,19.14,-45.66,0.0,0.007456851,-0.002130529
1710733125265,0.07182605,0.0047884034,9.435549,-0.12,18.96,-45.36,0.0031957934,0.0026631611,0.0
1710733125371,0.06943185,0.04070143,9.452309,0.29999998,19.439999,-45.84,-5.326322E-4,-5.326322E-4,-0.0010652645
1710733125471,0.055066638,0.009576807,9.435549,0.42,18.84,-45.18,-0.0026631611,-5.326322E-4,5.326322E-4
1710733125573,0.055066638,0.019153614,9.449914,0.0,19.5,-44.76,-0.0010652645,0.0015978967,-0.0026631611
1710733125672,0.059855044,0.038307227,9.445126,1.02,18.539999,-45.18,-0.0015978967,5.326322E-4,-5.326322E-4
1710733125786,0.06703765,0.02873042,9.440337,-0.17999999,18.72,-44.579998,0.0,0.002130529,-5.326322E-4
1710733125887,0.06703765,0.02633622,9.440337,0.12,18.539999,-45.66,5.326322E-4,-0.0015978967,-5.326322E-4
1710733125990,0.06943185,0.023942016,9.449914,-0.06,19.5,-45.059998,0.0010652645,0.0,-5.326322E-4
1710733126096,0.06703765,0.016759412,9.452309,-0.06,18.96,-45.0,-0.002130529,0.0031957934,5.326322E-4
1710733126202,0.062249243,0.019153614,9.43076,0.24,18.84,-44.94,0.0010652645,-0.0010652645,0.0
1710733126310,0.07182605,0.016759412,9.437943,0.53999996,18.779999,-44.82,5.326322E-4,5.326322E-4,-0.0010652645
1710733126415,0.059855044,0.011971008,9.44752,0.24,19.14,-43.86,5.326322E-4,-5.326322E-4,-5.326322E-4
1710733126520,0.050278235,0.023942016,9.440337,0.42,19.32,-45.42,5.326322E-4,-5.326322E-4,-5.326322E-4
1710733126625,0.059855044,0.02873042,9.433155,0.35999998,19.26,-44.46,-5.326322E-4,-0.0015978967,-5.326322E-4
1710733126732,0.07182605,0.031124622,9.43076,0.78,19.199999,-44.82,-5.326322E-4,5.326322E-4,0.0
1710733126832,0.06464344,0.023942016,9.440337,-0.29999998,19.14,-44.7,-5.326322E-4,-0.0015978967,-0.0015978967
1710733126942,0.06943185,0.019153614,9.435549,0.29999998,18.96,-45.6,-0.0015978967,0.002130529,-5.326322E-4
1710733127048,0.06703765,0.019153614,9.442732,0.53999996,18.66,-44.82,0.0010652645,-0.0026631611,5.326322E-4
1710733127154,0.07182605,0.019153614,9.440337,0.12,18.96,-45.6,-0.0037284256,5.326322E-4,-0.0010652645
1710733127259,0.06943185,0.02633622,9.433155,0.53999996,19.32,-44.82,-5.326322E-4,0.0010652645,-0.0015978967
1710733127366,0.06703765,0.031124622,9.433155,0.35999998,19.02,-45.3,-0.0010652645,-0.0010652645,-0.0010652645
1710733127471,0.06943185,0.02633622,9.435549,0.71999997,19.199999,-44.64,-0.0015978967,-0.0010652645,0.0
1710733127574,0.06703765,0.016759412,9.43076,0.06,19.199999,-44.64,0.0015978967,5.326322E-4,-5.326322E-4
1710733127678,0.062249243,0.023942016,9.421184,0.17999999,18.66,-44.879997,5.326322E-4,-0.0015978967,0.0010652645
1710733127783,0.06464344,0.021547815,9.433155,0.78,19.199999,-44.52,5.326322E-4,-5.326322E-4,-0.0010652645
1710733127881,0.06703765,0.019153614,9.435549,-0.12,19.26,-44.94,5.326322E-4,5.326322E-4,-0.0031957934
1710733127993,0.06703765,0.021547815,9.425972,0.17999999,18.779999,-44.879997,-5.326322E-4,5.326322E-4,-0.002130529
1710733128098,0.05746084,0.033518825,9.416395,0.0,18.18,-44.7,-0.0031957934,0.0,0.0
1710733128203,0.07182605,0.021547815,9.433155,0.17999999,19.56,-44.219997,-5.326322E-4,0.0,5.326322E-4
1710733128308,0.07182605,0.02633622,9.416395,-0.24,18.96,-44.82,0.0,-0.0015978967,0.002130529
1710733128412,0.06943185,0.033518825,9.440337,0.12,19.08,-45.18,5.326322E-4,-0.0015978967,0.0
1710733128520,0.059855044,0.016759412,9.433155,0.78,18.6,-45.6,5.326322E-4,0.0,0.0
1710733128625,0.059855044,0.033518825,9.428367,0.17999999,18.9,-44.879997,-0.0010652645,5.326322E-4,-0.0010652645
1710733128731,0.074220255,0.016759412,9.43076,-0.06,18.72,-44.879997,-5.326322E-4,-0.002130529,0.0015978967
1710733128835,0.06464344,0.02873042,9.425972,0.24,19.32,-44.82,-0.002130529,5.326322E-4,-0.0015978967
1710733128943,0.059855044,0.033518825,9.435549,0.42,18.6,-44.52,0.0,0.002130529,-0.0010652645
1710733129047,0.06943185,0.023942016,9.435549,0.71999997,18.96,-45.3,0.0,0.0,-5.326322E-4
1710733129152,0.06703765,0.021547815,9.425972,-0.59999996,18.42,-44.82,-5.326322E-4,0.0037284256,5.326322E-4
1710733129258,0.06464344,0.023942016,9.423578,0.35999998,18.24,-45.719997,-0.0010652645,-5.326322E-4,5.326322E-4
1710733129364,0.062249243,0.023942016,9.41879,0.06,19.38,-44.64,0.0,0.002130529,0.0
1710733129469,0.06464344,0.023942016,9.423578,0.29999998,19.439999,-45.059998,0.0026631611,-5.326322E-4,-0.0026631611
1710733129574,0.18195933,0.050278235,9.404425,0.06,19.08,-44.76,-5.326322E-4,-0.0015978967,-0.0058589545
1710733129678,0.4213795,1.1372458,9.344569,0.12,19.02,-44.34,0.0015978967,0.0026631611,0.020240024
1710733129783,0.06464344,-0.22026655,9.457097,0.42,18.779999,-44.579998,5.326322E-4,-0.0015978967,-0.007456851
1710733129886,0.110133275,0.16519992,9.141062,0.71999997,18.96,-43.86,-0.0010652645,-0.007456851,-0.00479369
1710733129995,0.17238252,0.14844051,9.404425,0.71999997,18.9,-44.04,0.0031957934,0.002130529,-0.0053263223
1710733130099,0.10534488,0.10295067,9.414001,0.35999998,19.32,-43.559998,-5.326322E-4,-0.0010652645,-0.0058589545
1710733130202,-0.021547815,0.14604631,9.437943,0.59999996,19.68,-43.86,0.002130529,0.0015978967,-0.011717909
1710733130308,-0.009576807,-0.18435353,9.41879,0.35999998,19.14,-44.579998,-5.326322E-4,0.0026631611,-0.0031957934
1710733130414,0.10295067,0.088585466,9.41879,0.65999997,19.38,-44.52,0.0,0.0015978967,0.0026631611
1710733130519,0.1340753,0.12210429,9.41879,0.24,19.02,-43.44,5.326322E-4,-0.0015978967,-0.0026631611
1710733130624,0.055066638,-0.0047884034,9.421184,1.26,19.26,-43.559998,0.0,-5.326322E-4,-0.0015978967
1710733130731,0.035913024,0.06703765,9.423578,0.42,19.38,-43.68,0.0,0.0010652645,0.0
1710733130835,0.023942016,-0.019153614,9.421184,0.65999997,19.199999,-43.68,0.0015978967,0.0015978967,0.0015978967
1710733130941,0.07182605,-0.0023942017,9.423578,0.59999996,19.38,-44.399998,0.0,0.002130529,0.0031957934
1710733131039,0.10055647,0.074220255,9.414001,0.96,18.779999,-43.68,0.0,5.326322E-4,0.0
1710733131149,0.079008654,0.0,9.423578,0.24,19.32,-44.28,5.326322E-4,-5.326322E-4,-0.0015978967
1710733131256,0.05746084,0.0047884034,9.423578,0.17999999,18.539999,-43.32,-0.0010652645,0.0010652645,-0.0015978967
1710733131360,0.06943185,0.02633622,9.423578,0.06,19.02,-43.68,0.0010652645,0.0015978967,-0.0010652645
1710733131465,0.06943185,-0.0047884034,9.43076,0.35999998,18.779999,-44.52,-0.0015978967,0.0010652645,5.326322E-4
1710733131570,0.08379706,0.045489833,9.41879,0.53999996,19.56,-43.92,0.0,-0.0010652645,-0.002130529
1710733131676,0.06943185,0.04070143,9.41879,0.24,19.08,-43.44,0.0,0.0026631611,-0.0015978967
1710733131779,0.04070143,-0.0023942017,9.423578,0.06,19.199999,-43.5,-0.0010652645,0.0,5.326322E-4
1710733131887,0.050278235,0.009576807,9.428367,0.48,18.9,-43.68,5.326322E-4,5.326322E-4,5.326322E-4
1710733131992,0.06464344,0.016759412,9.425972,0.65999997,19.26,-43.44,-5.326322E-4,5.326322E-4,0.0
1710733132096,0.06943185,0.02633622,9.425972,0.35999998,19.5,-43.2,-0.0015978967,-0.0015978967,0.0
1710733132205,0.06943185,0.033518825,9.425972,0.48,19.14,-43.44,-5.326322E-4,5.326322E-4,-0.0015978967
1710733132309,0.06703765,0.011971008,9.416395,0.24,19.56,-44.46,0.0010652645,0.0010652645,-0.0026631611
1710733132413,0.06703765,0.009576807,9.423578,0.35999998,18.66,-44.219997,5.326322E-4,-5.326322E-4,-5.326322E-4
1710733132519,0.06943185,0.031124622,9.425972,-0.35999998,19.619999,-43.5,-0.0010652645,-5.326322E-4,0.0
1710733132626,0.062249243,0.021547815,9.43076,0.53999996,18.9,-43.86,5.326322E-4,0.0015978967,-5.326322E-4
1710733132727,0.06464344,0.019153614,9.409213,0.53999996,19.619999,-43.8,0.0010652645,-0.0010652645,0.0010652645
1710733132834,0.055066638,0.031124622,9.416395,1.14,18.84,-43.44,-0.0010652645,-5.326322E-4,-0.0015978967
1710733132936,0.05746084,0.01436521,9.416395,0.53999996,18.779999,-43.559998,-0.0010652645,0.002130529,-0.0010652645
1710733133045,0.05267244,0.023942016,9.41879,0.65999997,18.72,-43.8,-0.002130529,-0.0010652645,-5.326322E-4
1710733133133,0.074220255,0.033518825,9.411607,0.12,19.32,-44.28,5.326322E-4,5.326322E-4,0.0015978967
1710733133250,0.07182605,0.023942016,9.41879,0.53999996,19.74,-43.26,5.326322E-4,-0.0015978967,0.002130529
1710733133358,0.06943185,0.019153614,9.414001,0.35999998,19.08,-43.379997,0.0015978967,0.0,0.0010652645
1710733133463,0.05746084,0.01436521,9.416395,1.62,18.84,-43.86,0.0,-0.002130529,-0.0015978967
1710733133566,0.059855044,0.021547815,9.423578,0.59999996,18.96,-43.14,0.0,0.002130529,5.326322E-4
1710733133671,0.06703765,0.031124622,9.425972,0.84,18.48,-43.8,-0.0015978967,0.002130529,0.0
1710733133775,0.07182605,0.019153614,9.423578,0.29999998,18.48,-43.92,-0.0010652645,0.0026631611,-5.326322E-4
1710733133881,0.06943185,0.02633622,9.425972,0.71999997,19.14,-43.98,-0.0015978967,0.0015978967,-0.0010652645
1710733133984,0.059855044,0.016759412,9.41879,0.12,19.08,-44.579998,0.0,5.326322E-4,0.0
1710733134093,0.059855044,0.016759412,9.421184,0.59999996,19.8,-44.94,0.0015978967,0.0,0.0015978967
1710733134191,0.06703765,0.02633622,9.41879,0.9,19.68,-44.219997,-5.326322E-4,0.0,0.0010652645
1710733134300,0.06464344,0.021547815,9.428367,0.71999997,19.26,-44.28,-0.0015978967,-5.326322E-4,0.0
1710733134405,0.06943185,0.02633622,9.428367,0.65999997,19.199999,-44.46,-0.0015978967,-5.326322E-4,0.0010652645
1710733134509,0.07182605,0.021547815,9.41879,0.71999997,19.199999,-44.16,-5.326322E-4,0.0015978967,0.0010652645
1710733134614,0.059855044,0.02873042,9.423578,0.24,18.84,-43.8,-0.0031957934,0.0,-0.002130529
1710733134720,0.06703765,0.019153614,9.41879,0.48,19.859999,-43.26,-0.0015978967,0.0,-0.0015978967
1710733134827,0.06703765,0.02633622,9.41879,0.9,18.72,-43.14,0.0,0.0,0.0
1710733134931,0.06703765,0.023942016,9.41879,-0.17999999,19.68,-43.5,-0.0015978967,5.326322E-4,0.0
1710733135035,0.06703765,0.02633622,9.421184,0.59999996,19.08,-43.86,0.0015978967,-0.0010652645,5.326322E-4
1710733135139,0.055066638,0.02633622,9.433155,1.02,18.359999,-44.28,0.0,0.0,5.326322E-4
1710733135247,0.07182605,0.02633622,9.41879,0.65999997,19.26,-44.52,-0.0026631611,-5.326322E-4,0.0
1710733135351,0.05746084,0.023942016,9.41879,0.0,19.08,-44.46,5.326322E-4,-5.326322E-4,5.326322E-4
1710733135456,0.06703765,0.033518825,9.425972,0.12,18.9,-43.86,-0.0031957934,-0.0010652645,0.0010652645
1710733135561,0.055066638,0.031124622,9.416395,0.84,20.22,-43.739998,0.0,-0.0015978967,5.326322E-4
1710733135666,0.079008654,0.021547815,9.428367,-0.48,19.08,-43.68,-0.0010652645,-0.0010652645,-5.326322E-4
1710733135771,-0.09816227,-0.5434838,9.698911,-0.35999998,19.08,-43.5,0.0053263223,0.011717909,-0.002130529
1710733135875,0.15801731,0.25617957,9.449914,0.53999996,18.84,-43.5,-0.002130529,0.0010652645,0.0063915867
1710733135981,0.08619126,-0.18195933,9.43076,0.65999997,19.32,-43.379997,5.326322E-4,0.0,-0.007989483
1710733136086,0.038307227,0.076614454,9.423578,1.14,19.439999,-44.16,-0.00479369,-5.326322E-4,-0.0015978967
1710733136192,0.045489833,0.12210429,9.423578,0.29999998,19.08,-44.94,0.0015978967,-0.0026631611,-0.0037284256
1710733136293,0.04309563,-0.11252748,9.433155,0.65999997,18.3,-44.1,-0.0010652645,5.326322E-4,0.0010652645
1710733136405,-0.06464344,0.11971009,11.923124,1.62,18.359999,-43.86,0.022370555,0.076166406,0.0010652645
1710733136508,-1.6328455,-0.33758244,9.871294,0.65999997,18.9,-45.42,0.16618125,0.40266997,-0.4644553
1710733136614,0.12210429,0.31124622,13.496115,-0.48,19.439999,-45.18,0.017044231,0.033023197,0.013848438
1710733136719,0.18435353,-0.18674773,9.337387,-1.1999999,19.5,-45.3,-0.0015978967,-0.0031957934,0.0037284256
1710733136825,0.08619126,0.050278235,9.421184,-0.84,19.32,-45.3,-0.0010652645,-0.0026631611,0.0037284256
1710733136931,0.05746084,-0.02873042,9.414001,-0.71999997,18.66,-44.7,5.326322E-4,5.326322E-4,0.0058589545
1710733137038,0.07182605,0.059855044,9.423578,-0.78,18.66,-45.239998,-0.0010652645,-5.326322E-4,0.002130529
1710733137142,0.038307227,0.095768064,9.425972,-1.02,18.3,-44.52,-0.0026631611,-5.326322E-4,-0.004261058
1710733137248,-0.0023942017,-0.050278235,9.421184,-0.59999996,19.199999,-44.7,0.0010652645,-0.0015978967,-0.0037284256
1710733137352,0.05267244,0.02873042,9.425972,-0.96,18.9,-45.059998,5.326322E-4,0.0015978967,0.002130529
1710733137458,0.09816227,0.035913024,9.421184,-1.1999999,19.14,-45.36,5.326322E-4,0.002130529,-0.0010652645
1710733137563,0.095768064,0.019153614,9.425972,-1.14,18.66,-46.079998,5.326322E-4,0.0,5.326322E-4
1710733137665,0.06703765,0.055066638,9.421184,-0.59999996,18.96,-45.6,-0.002130529,-0.0010652645,-0.0010652645
1710733137772,0.02873042,0.0047884034,9.452309,-1.02,18.66,-45.36,0.0015978967,0.0,-0.0037284256
1710733137877,0.035913024,0.007182605,9.425972,-0.84,18.779999,-45.18,0.0,0.0,-0.0010652645
1710733137982,0.055066638,0.05746084,9.416395,-0.9,18.72,-44.82,0.002130529,-5.326322E-4,5.326322E-4
1710733138088,0.055066638,0.023942016,9.425972,-0.96,18.539999,-44.64,-0.002130529,0.0026631611,0.002130529
1710733138194,0.055066638,0.016759412,9.416395,-0.84,19.199999,-45.18,0.0031957934,0.002130529,0.0010652645
1710733138299,0.05746084,0.031124622,9.411607,-0.84,18.84,-44.94,-5.326322E-4,0.002130529,5.326322E-4
1710733138405,0.06703765,-0.0047884034,9.423578,-1.3199999,18.66,-45.059998,-5.326322E-4,0.0026631611,-0.0010652645
1710733138510,0.059855044,0.033518825,9.43076,-0.17999999,18.119999,-44.94,0.0,0.0015978967,5.326322E-4
1710733138616,0.062249243,0.045489833,9.409213,-0.59999996,18.72,-46.32,5.326322E-4,0.0015978967,-0.0015978967
1710733138719,0.05267244,0.01436521,9.428367,-1.0799999,19.08,-45.3,0.0010652645,0.0015978967,5.326322E-4
1710733138826,0.04309563,0.02873042,9.428367,-1.92,19.08,-44.82,5.326322E-4,-0.0015978967,0.0
1710733138931,-1.541866,-1.3838485,9.375694,-0.29999998,19.14,-44.94,-0.007989483,0.029827405,1.5126755
1710733139035,-0.4189853,0.031124622,9.054871,4.74,18.66,-44.879997,-0.34887412,0.2759035,0.67218184
1710733139140,-1.520318,-1.4556746,37.1197,6.48,21.96,-43.62,-1.6879115,1.1563445,-1.5654061
1710733139245,-12.512098,-4.900931,11.6669445,7.98,33.54,-34.98,-0.06870956,6.6131616,-2.2551649
1710733139350,-14.817715,-6.564901,-0.8499416,25.619999,33.54,-22.619999,-1.6048208,5.4323163,0.9528791
1710733139455,-7.6710224,-5.056554,-1.7884687,31.14,27.84,0.35999998,-3.701794,4.8890314,1.0679276
1710733139559,-3.4117374,-2.9400797,3.526659,28.439999,25.26,25.019999,-1.2719258,4.428837,0.34408042
1710733139667,-4.7620673,-2.3127987,0.6967127,22.08,20.279999,33.36,-0.8223842,-0.8452873,-0.7414241
1710733139771,-4.2042184,-2.315193,-7.1514807,25.08,18.779999,32.52,-1.4013554,-0.74248934,-0.8564726
1710733139877,-8.437167,-0.7158663,-4.2544966,26.46,16.859999,32.16,-0.7568704,-1.4162691,-1.1158645
1710733139982,-10.0341,-1.7741034,-4.7668557,28.5,18.24,30.0,-0.28549087,-0.9422264,-0.5800365
1710733140088,-6.9383965,-0.9959879,-3.4045548,32.34,19.02,26.82,0.13954964,-0.5368933,-1.2405005
1710733140193,-12.449849,-1.7477672,1.8148049,31.5,24.119999,22.68,1.009338,0.01438107,-0.11504856
1710733140298,-13.318944,-7.7931266,-2.1906946,30.42,28.859999,21.6,2.0437098,1.8077538,0.46392268
1710733140404,-10.749966,-4.4963107,-5.305551,27.24,28.5,23.699999,-0.9981528,2.769155,0.79415464
1710733140506,-8.848969,0.047884032,-3.3662477,24.0,22.26,31.26,0.43569317,6.114085,-1.496164
1710733140613,-0.7637503,-3.904943,-7.953538,10.32,26.16,33.719997,1.010936,1.9137475,-1.4924355
1710733140710,-2.267309,-7.4986396,-7.479486,-2.6399999,32.7,29.34,4.9353704,0.27803403,-0.13795175
1710733140817,1.13964,-8.858546,-9.009381,-1.38,44.28,10.98,2.5816684,-1.6101472,0.10759171
1710733140929,-1.6472107,-9.239224,-7.1969705,-7.3799996,44.82,7.8599997,-2.1805964,1.4796523,-1.5195998
1710733141033,-2.3654714,-7.5465236,-2.4468741,-8.88,42.42,14.58,0.95234644,-3.4812841,-1.901497
1710733141138,-1.0031705,-6.9360023,-2.6910827,-11.7,43.26,9.059999,1.3448963,2.1166804,-0.15339808
1710733141243,-2.1188686,-11.353305,0.7302315,-11.58,45.36,-2.04,3.2474587,1.8706044,0.5006743
1710733141347,-0.545878,-12.030864,0.050278235,0.53999996,41.16,-23.58,2.3334618,4.9028797,1.6586168
1710733141453,1.2258313,-9.512163,-3.0310593,12.0,37.44,-28.38,-2.9507825,-2.8266792,0.12836437
1710733141556,-1.4796166,-9.773131,-0.7062895,9.0,46.32,-12.3,-3.1579764,5.7332535,-0.5454154
1710733141663,-1.1348516,-6.7253127,0.5291186,10.38,47.28,-1.3199999,1.5456988,4.8906293,1.7086842
1710733141768,0.6584055,-6.670246,-2.3798366,24.42,42.18,1.0799999,-2.572081,2.4655545,1.8780613
1710733141874,0.30885202,-8.480263,-8.087613,32.1,33.899998,10.679999,-2.241849,-0.9550096,3.0120351
1710733141978,-2.360683,-10.879252,-11.580753,39.719997,22.68,12.42,-2.5976474,-4.5279064,1.3752564
1710733142084,-7.7691846,-4.015076,-6.8545995,45.96,12.0,4.2599998,-0.9598033,-2.6391926,0.70147663
1710733142190,-9.124303,-0.82599956,-5.291186,45.6,4.3199997,-17.279999,-1.4881744,-4.729774,3.0871365
1710733142292,2.4277205,-1.6112977,3.466804,32.579998,-4.08,-36.54,-3.0956585,-12.069979,3.5281558
1710733142397,-3.2800562,0.79487497,9.921572,7.08,-1.9799999,-48.239998,0.68656296,-1.6341157,-1.3459617
1710733142503,-0.3878607,3.9432502,4.6136265,-2.1599998,-1.56,-48.84,-2.3952472,-1.804558,-3.4882085
1710733142605,-0.6655881,-3.2513258,7.836222,-7.44,10.559999,-46.2,-3.0402648,-0.46711847,-3.470099
1710733142712,-0.06943185,-7.065289,12.162544,-13.62,14.759999,-42.3,1.8519622,0.74035877,-1.9387813
1710733142817,-6.4882865,1.3623008,10.402806,-11.5199995,6.48,-45.66,1.9558256,0.20293288,1.2895026
1710733142922,-2.147599,-1.7501614,5.6551046,-12.24,-2.8799999,-44.879997,1.1451592,0.99069595,1.778459
1710733143027,-2.657564,-2.2888567,7.089231,-8.04,-8.28,-46.44,0.7414241,0.6695187,1.1909657
1710733143133,-7.3047094,-2.5953147,20.760122,-5.8199997,-5.7,-47.34,-0.793622,1.7486316,0.7717841
1710733143238,-3.4811692,1.0366893,4.232949,-2.6399999,-9.9,-46.68,0.18109496,-0.46179214,-0.48682585
1710733143343,-7.503428,-1.1109096,10.3692875,-3.48,-7.7999997,-46.86,-1.2639363,0.92092115,0.42184472
1710733143447,-4.8722005,1.1228806,6.811504,-0.24,-9.0,-46.86,-0.030360037,0.44528055,-0.39254996
1710733143551,-5.3701944,0.60333884,8.817844,1.4399999,-9.179999,-46.92,0.27803403,-0.3089267,-0.048469532
1710733143661,-5.2121773,-0.4405331,7.120356,-1.26,-11.5199995,-46.379997,-0.06657903,-0.090014845,-0.128897
1710733143762,-5.2409077,-0.23702596,7.1251445,-2.1,-11.46,-46.32,-0.16192019,-0.08681905,-0.21518342
1710733143869,-3.9025488,0.8714894,8.429984,-1.62,-10.86,-46.62,0.049002163,0.39414784,-0.2263687
1710733143975,-5.925649,0.08379706,8.286332,0.65999997,-11.5199995,-46.32,-0.05539375,-0.0628506,0.023435818
1710733144081,-4.987122,0.06943185,8.365341,-0.71999997,-10.679999,-46.2,0.06870956,-0.17097494,0.0777643
1710733144186,-4.807557,0.28491,7.821857,-1.38,-11.219999,-46.98,0.014913702,-0.043675844,-0.21518342
1710733144291,-5.4899044,0.842759,8.152257,-1.56,-11.82,-46.559998,0.11611383,0.10279802,0.015446335
1710733144397,-4.9081135,0.3878607,7.833828,0.48,-12.84,-46.739998,-0.14061491,-0.075101145,0.14221281
1710733144502,-5.1762643,0.46447513,8.588001,-0.35999998,-10.86,-46.559998,0.1587244,0.06764429,0.101200126
1710733144607,-5.1882353,0.39743748,8.02297,-1.4399999,-12.0,-46.68,-0.2396845,-0.07563378,0.013315806
1710733144713,-4.8219223,0.7445967,8.128315,-1.3199999,-11.759999,-47.219997,0.007456851,-0.2396845,0.098004326
1710733144815,-4.414908,0.51714754,7.785944,-2.1,-10.98,-47.7,-0.092145376,-0.04474111,-0.03834952
1710733144922,-4.9176903,0.260968,8.118738,-1.86,-10.2,-46.559998,-0.018642128,-0.10226539,-0.049002163
1710733145027,-5.080496,0.79487497,8.137892,-1.74,-11.4,-46.86,-0.044208474,-0.21198763,0.018642128
1710733145131,-4.5322237,0.5674258,8.63828,-4.56,-9.42,-46.2,-0.7414241,-0.8644621,0.09427591
1710733145239,-4.1659107,0.90500826,9.301474,-9.9,-5.7,-46.5,-0.4607269,-1.0205233,0.49641323
1710733145342,-3.1483753,0.7493851,12.49055,-13.44,-1.8,-44.28,0.30519825,-0.7946873,1.5595472
1710733145445,-1.7860745,0.011971008,10.8624935,-16.859999,-4.08,-44.28,2.873551,-1.4024206,2.3393207
1710733145553,0.21547815,1.5610195,9.603143,-20.279999,-12.059999,-42.96,1.7544906,0.31478566,1.7869811
1710733145653,1.721431,-0.5722142,8.561666,-25.68,-19.74,-37.8,1.0301107,-2.1177456,-3.577158
1710733145768,-0.6536171,2.6360161,3.8786068,-27.119999,-36.18,-29.099998,-0.8538095,-1.9664782,-3.7689056
1710733145871,-6.6630635,2.6862943,7.050924,-25.74,-36.78,-28.859999,-2.902313,-2.602441,-0.7440872
1710733145973,2.408567,3.0789435,6.7253127,-29.34,-27.3,-33.12,-3.2778187,1.653823,-0.30679616
1710733146080,-0.8379706,-3.2225955,5.0397944,-33.66,-14.639999,-32.88,0.9518138,-5.22672,2.0266657
1710733146185,6.0022635,-3.9456444,7.8912888,-43.02,-7.68,-20.82,-0.2514024,-0.18269286,2.8788772
1710733146289,7.8984714,-5.851429,9.473856,-42.84,5.7599998,-18.48,-1.320928,-2.586462,0.18375812
1710733146395,8.554482,-6.7348895,2.813187,-46.44,6.0,-8.34,-1.0423613,-0.21411815,0.39361522
1710733146499,7.0102224,-4.9176903,7.2664022,-45.899998,6.06,-7.14,0.8633968,1.2436962,-0.83037364
1710733146604,9.775525,-7.795521,2.966416,-42.059998,5.52,-19.14,-0.44368264,-0.7004114,-0.47351006
1710733146710,5.427655,-3.1364043,9.579201,-43.98,3.9599998,-16.74,1.7976338,-2.8107002,-0.36911413
1710733146813,7.606379,-1.2066777,4.3358994,-48.539997,0.48,-0.65999997,1.2085425,-3.9947417,-0.20879184
1710733146921,8.614338,-1.8243817,2.6719291,-47.16,2.1,8.639999,0.50173956,-1.0306433,0.21252026
1710733147027,8.913613,-3.4620156,0.81163436,-45.84,3.6599998,12.66,-0.0031957934,-0.8410263,0.27537087
1710733147131,9.624691,-3.9336734,0.25139117,-43.92,4.8599997,15.36,0.43782368,-1.3156016,0.6380934
1710733147235,10.714052,-4.7500963,1.1061212,-40.02,13.679999,19.619999,-0.43995422,-0.82185155,1.262871
1710733147339,5.7365074,-6.5744777,-2.9640217,-32.82,22.439999,22.8,-0.104928546,-0.5251754,1.7630126
1710733147434,6.021417,-6.823475,-0.79487497,-25.619999,29.76,23.939999,-0.17097494,-0.20985709,1.5797871
1710733147545,5.5042696,-9.528923,-0.8379706,-19.92,34.559998,23.88,0.42290998,-0.2066613,0.6583334
1710733147643,3.5362358,-8.932767,-0.581791,-18.72,35.82,24.119999,0.1272991,0.16138756,-1.0396981
1710733147740,6.5984197,-6.88333,-1.1827357,-24.18,31.98,22.619999,0.07989483,0.69774824,-2.016013
1710733147852,7.129933,-6.8545995,3.371036,-33.84,26.16,17.279999,0.4660532,3.0940607,-0.8612663
1710733147947,8.329428,-7.007828,5.8322754,-39.36,23.88,3.06,0.9784454,4.6946206,-0.30839407
1710733148048,6.7827735,-4.132392,11.712435,-36.42,19.14,-21.66,3.0972564,6.058159,-2.1124194
1710733148149,-3.169923,-0.090979666,5.7389016,-28.74,4.3199997,-37.38,-0.28229508,0.7701862,-0.6961503
1710733148251,-0.0023942017,-0.82599956,10.031705,-26.82,2.52,-38.16,0.6327671,-1.0546118,-0.60720074
1710733148356,3.7804444,-0.82360536,9.94312,-28.68,1.3199999,-37.44,0.83942837,-0.25406557,-0.57417756
1710733148467,-1.5035586,-1.4628572,8.63828,-27.779999,-4.2,-39.78,1.0002834,0.07190535,-0.2743056
1710733148573,0.3184288,1.3742718,4.343082,-30.72,-9.599999,-36.899998,1.7124126,-2.1997712,0.5022722
1710733148684,0.19871874,1.2425907,7.5345526,-31.32,-11.16,-37.02,-1.8647454,2.5124261,-0.76965356
1710733148788,1.9895816,0.9959879,9.445126,-27.96,-8.639999,-38.64,0.9507485,-0.8330368,-0.092145376
1710733148896,1.5370775,2.3223755,7.7093296,-32.16,-13.08,-34.079998,0.45327002,-1.9212044,-0.40053943
1710733148998,3.1627405,2.0278888,8.042124,-34.86,-15.66,-30.3,-0.9347696,0.07829694,-1.3145363
1710733149100,5.9280434,1.7717092,8.983045,-36.719997,-14.099999,-28.859999,0.09427591,-0.56618804,-0.27803403
1710733149205,4.1826706,2.5306711,5.825093,-38.04,-16.8,-24.359999,-0.08042747,-1.7347832,-0.2396845
1710733149311,5.9280434,0.3184288,7.920019,-39.6,-17.279999,-21.3,-2.944391,-2.441586,-0.19014971
1710733149413,7.9224133,-5.571307,2.3942018,-39.54,-13.08,-24.539999,-3.5856802,-0.3930826,-0.96140116
1710733149518,-1.2234371,7.156269,15.849615,-34.62,-15.839999,-29.82,2.0671456,2.2354574,-0.32863408
1710733149627,4.283227,1.3718776,5.920861,-34.32,-20.22,-27.24,-0.24021713,0.83996105,0.8165252
1710733149733,3.6966474,-0.61291564,9.80665,-31.619999,-12.96,-33.719997,-0.773382,2.401106,0.6332997
1710733149838,2.540248,-3.4165258,9.200917,-24.84,-3.24,-41.28,-2.5049694,0.89109373,1.7353158
1710733149942,0.016759412,-4.793192,9.289502,-21.539999,8.46,-42.6,-0.26684874,0.6535397,0.7387609
1710733150048,0.24899697,-5.475539,8.5473,-18.359999,12.96,-42.96,-0.5906891,0.29561087,0.3653857
1710733150153,0.4381389,-5.422867,8.707711,-19.32,17.82,-41.46,-0.6306366,-0.6940198,-0.17789917
1710733150259,0.019153614,-5.8921304,7.93199,-22.32,18.66,-40.559998,0.3073288,-0.39574575,0.058056913
1710733150362,0.91937345,-4.5322237,7.5920134,-22.56,16.92,-40.26,0.40959418,-0.45593318,-0.2066613
1710733150467,0.58657944,-3.9504328,8.046912,-23.88,14.16,-40.86,0.6146576,-0.008522116,-0.2892193
1710733150572,0.557849,-3.217807,6.967127,-24.359999,11.16,-40.559998,0.30519825,-0.046339005,0.13422333
1710733150677,1.2042835,-3.6822822,7.6494746,-24.42,11.7,-41.219997,-0.15393071,0.13582122,0.15393071
1710733150780,1.0773908,-4.6686935,8.829816,-24.84,12.36,-41.1,0.047404267,-0.12357068,0.11345066
1710733150890,0.58897364,-3.821146,8.623915,-24.0,10.92,-40.379997,0.00958738,0.1603223,0.032490566
1710733150986,1.055843,-4.201824,8.669404,-23.76,11.639999,-41.219997,0.0,-0.0053263223,0.084155895
1710733151097,0.7517793,-4.0653543,8.37013,-23.16,12.179999,-40.86,0.083090626,0.050600063,-0.06391586
1710733151201,0.34476504,-4.10845,8.614338,-23.58,10.44,-41.64,0.048469532,0.08362326,0.082558
1710733151301,0.5363012,-3.9312792,8.532935,-23.64,10.98,-41.16,0.01917476,0.04580637,0.14221281
1710733151400,0.62488663,-3.9719806,8.556877,-22.5,10.92,-40.98,0.027164243,-0.083090626,-0.025033714
1710733151509,0.7493851,-3.8953662,8.580819,-23.64,10.44,-41.64,0.0628506,-0.07084008,-0.05219796
1710733151612,0.61052144,-4.0557775,8.6334915,-23.699999,10.38,-42.059998,-0.0127831735,0.019707393,0.013315806
1710733151721,0.8523358,-3.904943,8.645462,-22.8,9.9,-41.34,-0.13848437,-0.05273059,-0.11664646
1710733151829,0.8619126,-3.4093432,8.391677,-24.42,10.08,-40.86,-0.572047,-0.4415521,-0.50333744
1710733151936,1.1372458,-5.7843914,8.760384,-26.519999,11.759999,-39.48,-0.46232477,-0.007456851,-0.28708878
1710733152037,2.4157495,-5.518635,8.365341,-26.82,12.599999,-39.36,-0.1965413,0.39574575,-0.46658584
1710733152144,1.3790601,-4.9703627,8.413225,-25.38,11.219999,-40.5,0.42077947,-0.051132694,0.20080236
1710733152247,0.78529817,-4.8841715,8.250419,-25.199999,10.74,-40.739998,0.27803403,-0.10226539,0.46019423
1710733152352,1.6184803,-3.9432502,7.4268136,-26.4,12.3,-39.719997,-0.128897,-0.2727077,0.2050634
1710733152457,1.3790601,-4.572925,7.644686,-26.46,12.48,-39.18,0.004261058,-0.15606125,0.014913702
1710733152556,1.2856863,-4.489128,8.441956,-26.699999,12.24,-39.48,0.039414786,0.10972224,-0.0026631611
1710733152657,1.1803415,-4.673482,8.264784,-25.92,12.48,-39.899998,0.008522116,0.15393071,0.25513083
1710733152760,1.340753,-4.3598413,8.279149,-25.14,12.54,-38.76,0.3009372,0.0,0.11824436
1710733152865,1.0199299,-3.9600096,8.283937,-24.72,10.92,-40.92,0.20186761,0.018109497,-0.16884442
1710733152964,1.2401965,-4.06296,8.566454,-25.68,10.5,-41.16,0.044208474,-0.087884314,-0.06391586
1710733153076,1.5227122,-3.845088,8.274361,-26.16,10.26,-38.82,-0.12410331,-0.24234766,-0.5944176
1710733153175,1.5179238,-4.853047,8.561666,-27.359999,9.36,-40.32,-0.043675844,0.082558,-0.3685815
1710733153277,1.8076223,-2.791639,7.6111674,-26.46,6.6,-40.44,0.12250541,-0.094808534,-0.7163904
1710733153380,2.3558946,-2.3008277,3.8977604,-24.96,2.52,-41.7,0.27643612,3.8056574,-2.0847225
1710733153486,-0.1364695,-4.295198,9.172187,-18.0,-6.72,-44.1,1.8833876,-0.06391586,-0.04314321
1710733153588,2.0374656,-1.7908629,10.836157,-23.64,-10.38,-40.92,0.47617322,-1.933455,0.15020229
1710733153692,3.928885,-0.20590134,5.7269306,-28.019999,-7.98,-37.98,-2.3153522,-1.4088123,-0.068176925
1710733153798,5.851429,-2.765303,6.9048777,-34.739998,-2.7,-34.2,-0.19281286,-2.1038973,-1.3970944
1710733153905,3.454833,-5.681441,8.355764,-39.78,-6.54,-26.88,0.104928546,-0.6897587,1.3699301
1710733154012,7.302315,-5.6646814,7.3071036,-40.68,1.74,-25.5,1.3310479,-0.5123922,0.89535475
1710733154113,4.247314,-4.2904096,6.8162923,-42.899998,2.82,-22.68,1.063134,0.9267801,1.7672738
1710733154220,4.984728,-4.220978,8.111555,-40.739998,10.92,-24.6,0.082558,0.19707392,2.278068
1710733154324,5.935226,-6.0238113,9.057265,-38.16,18.779999,-25.8,1.4391723,-1.0482203,0.8708537
1710733154431,4.9057193,-3.845088,7.465121,-41.1,16.74,-22.26,1.310808,-1.2538162,0.8213189
1710733154536,7.8649526,-3.1364043,3.205836,-44.94,15.54,-12.78,0.628506,-2.7766118,0.17896444
1710733154639,8.372523,-3.2824504,5.221754,-45.3,17.58,-1.1999999,0.45380265,-2.088451,0.3270362
1710733154746,8.226477,-2.3295584,1.5155296,-43.2,20.1,8.5199995,0.33768883,-1.9382486,0.6812366
1710733154845,8.75799,-3.4763808,0.56982,-39.3,23.64,15.179999,0.28495824,-1.3965617,0.7307714
1710733154952,7.773973,-4.213795,-1.745373,-34.8,27.18,19.98,0.37124467,-0.46339005,0.80747044
1710733155059,12.641385,-6.5337763,1.292869,-32.46,30.779999,20.52,0.6135923,0.35100463,0.29827404
1710733155160,7.989451,-4.6662993,1.6280571,-31.26,34.8,18.18,-0.6061355,-0.11717909,1.1286477
1710733155268,12.782643,-8.719683,0.46926352,-27.0,37.98,20.76,-0.73769563,0.1470065,1.0231866
1710733155371,6.093243,-7.4124484,0.80205756,-20.4,42.48,19.74,0.5134575,0.35739622,1.4429007
1710733155479,6.5720835,-8.844181,0.9911995,-15.179999,46.44,16.92,0.2796319,0.35739622,0.8016115
1710733155578,3.5817258,-9.160215,1.5251064,-13.08,48.539997,17.1,-0.22849922,-0.046871636,0.15339808
1710733155684,3.6128504,-8.947132,0.39504328,-12.54,48.12,18.18,-0.8538095,-0.54914385,-0.054328486
1710733155790,2.315193,-8.37013,-0.5770026,-12.9,46.559998,21.48,0.49002165,-0.31052458,-0.12197278
1710733155897,4.283227,-8.403648,0.49559975,-12.78,46.98,19.56,0.19600865,0.009054748,0.09161274
1710733156002,4.1036615,-9.009381,-0.021547815,-12.3,47.52,19.26,-0.20879184,0.027696876,-0.3536678
1710733156107,3.8977604,-8.983045,-0.01436521,-13.139999,46.02,20.76,-0.41172472,-0.01917476,-0.1587244
1710733156212,4.972757,-5.7963624,5.2049947,-13.679999,44.7,21.48,-0.93796533,-1.2921658,0.44101948
1710733156316,3.8977604,-7.6710224,-2.0231004,-9.66,44.1,25.38,-0.0053263223,0.0479369,1.1478225
1710733156423,2.1691468,-10.694899,-0.7733272,-3.54,46.379997,24.359999,0.18961707,-0.12410331,1.9616845
1710733156527,-1.1013328,-10.25676,-0.89782566,6.48,45.84,24.24,-0.29348037,-0.42983422,2.0112193
1710733156629,-1.9009962,-9.354146,-0.7302315,12.719999,44.1,24.24,0.48842376,-0.2711098,0.52357745
1710733156736,-2.0231004,-7.7093296,-0.6775591,14.58,45.78,23.64,-0.08042747,0.33822146,0.015446335
1710733156844,-4.0198646,-5.2169657,-4.4603977,13.559999,45.18,25.26,-0.16884442,0.79628515,-0.26045716
1710733156950,-1.5873557,-9.181764,-0.46686932,10.86,45.84,23.16,0.52837116,0.077231675,-0.7781757
1710733157054,-0.17717093,-10.208876,-0.2681506,8.76,47.879997,22.38,0.16405073,-5.326322E-4,-0.3472762
1710733157159,-0.6464345,-8.810662,-0.6967127,7.7999997,48.539997,21.119999,0.03355583,-0.14966966,-0.33289513
1710733157264,-1.6639702,-11.319786,-0.2753332,3.9599998,49.559998,20.64,0.0010652645,-0.03355583,-0.572047
1710733157368,1.9871874,-9.55047,-0.49559975,0.96,49.68,21.539999,-0.2412824,0.5123922,-0.58696073
1710733157476,1.3024458,-9.442732,-0.6392518,-1.4399999,48.059998,22.5,-0.2908172,-0.5864281,0.013848438
1710733157578,2.3391352,-9.076419,-0.878672,-0.53999996,47.039997,23.88,-0.21731395,0.07456851,-0.108124346
1710733157684,1.3790601,-9.720459,-0.94331545,-2.34,47.64,24.0,0.06018744,0.3653857,-0.11611383
1710733157789,0.93852705,-8.765172,-0.51714754,-3.9599998,46.5,23.76,-0.044208474,1.1994878,-0.3121225
1710733157896,2.384625,-9.148245,-0.23463176,-7.74,45.96,23.22,-0.0644485,1.0476876,0.072970614
1710733158001,2.6192567,-8.841787,-0.37349546,-9.599999,46.44,21.779999,0.22849922,0.45540056,0.20186761
1710733158107,1.6879122,-10.271125,0.05746084,-8.76,47.399998,20.22,0.1949434,-0.59601545,-0.13369069
1710733158211,-0.7254431,-8.295909,0.088585466,-9.42,47.7,20.52,-0.15925704,-1.0487529,0.08468852
1710733158319,2.693477,-10.172963,-0.30645782,-8.94,47.039997,21.84,-0.6359629,0.10066749,-0.06231797
1710733158415,2.885013,-9.849746,-0.34237084,-8.34,46.86,23.34,0.037284255,-0.0037284256,0.092145376
1710733158522,1.7166426,-8.985439,-0.7254431,-8.94,46.14,23.58,-0.104928546,-0.16831179,0.24873926
1710733158631,2.2290018,-10.625467,-0.581791,-7.56,46.02,24.06,0.13422333,0.1304949,0.34834146
1710733158738,0.81402856,-6.9527617,-0.4189853,-5.94,46.559998,23.519999,0.04527374,0.015446335,0.8021441
1710733158842,0.7757214,-11.664551,-0.36152446,-3.4199998,46.2,23.34,-0.030360037,-0.16564862,0.34674358
1710733158948,-0.05746084,-7.079654,-0.272939,-2.46,46.92,22.92,0.18002969,0.1257012,0.112918034
1710733159053,0.19393034,-11.980585,-0.2633622,-2.28,46.5,23.16,0.08894958,0.035153728,0.024501082
1710733159158,-0.37588966,-10.534488,-0.60333884,-1.68,47.039997,22.68,0.096939065,-0.03781689,0.28868666
1710733159265,0.35194764,-9.284714,0.093373865,-0.42,46.92,22.199999,-0.18002969,0.41172472,-0.5571333
1710733159366,1.3575124,-9.871294,-0.62488663,-3.4199998,46.02,23.34,0.013315806,0.02396845,-0.08735169
1710733159473,-0.05267244,-9.751583,-0.11971009,-3.3,46.8,23.039999,0.023435818,0.053795855,0.18269286
1710733159577,0.11971009,-8.494628,-0.08619126,-2.8799999,47.1,22.8,0.056459017,-0.24660872,0.21944448
1710733159683,-0.2705448,-11.415554,0.24660277,-2.7,47.1,22.8,0.044208474,0.06391586,0.09534117
1710733159788,-0.20111294,-7.2783732,-0.22505496,-2.22,47.1,22.68,0.21358553,-0.24714136,0.0628506
1710733159892,-1.1851299,-10.8624935,0.08619126,-0.9,47.64,21.66,-0.076166406,-0.30146983,0.13741912
1710733160000,0.35913026,-10.3932295,-0.10055647,-1.02,47.28,21.96,-0.24767399,0.2034655,-0.29348037
1710733160105,1.9009962,-9.543288,-0.80684596,-4.68,46.559998,23.46,-0.07669904,-0.1470065,0.01917476
1710733160211,1.2186487,-9.911995,-0.38307226,-5.16,46.62,23.279999,-0.06657903,0.015446335,0.1736381
1710733160311,0.107739076,-9.900024,-0.7278373,-4.68,46.8,23.82,0.08681905,-0.09374327,0.12037488
1710733160425,-0.36391866,-10.666168,-0.34237084,-2.1,47.1,22.56,0.094808534,-0.15978967,0.07243799
1710733160526,0.8738836,-8.329428,-0.60333884,-2.8799999,48.239998,22.619999,0.1438107,-0.0053263223,-0.050600063
1710733160632,0.9792285,-13.374011,1.0151415,-4.3199997,47.94,21.9,0.17310548,0.8905611,-0.03834952
1710733160736,0.15562311,-10.036493,0.095768064,-5.22,48.0,21.6,-0.08628642,0.2892193,-0.32330775
1710733160841,0.32321724,-9.399636,-0.36631286,-6.48,47.1,22.02,-0.11611383,-0.10066749,-0.1571265
1710733160946,0.1388637,-6.373365,-0.023942016,-6.8399997,46.8,21.779999,-0.128897,-5.326322E-4,0.016511599
1710733161052,0.93134445,-9.287108,-0.19153613,-7.68,46.739998,22.74,0.15286545,-0.3323625,0.03888215
1710733161158,1.0534488,-9.270349,-0.1316811,-4.92,46.62,22.32,0.1571265,-0.41385525,0.25193503
1710733161262,0.11731588,-10.589554,-0.12210429,-3.06,47.52,22.68,0.120907515,0.13315806,0.13102753
1710733161367,0.62967503,-9.962274,0.37349546,-3.6,47.579998,21.48,0.04527374,0.13262543,0.042077947
1710733161472,0.581791,-10.46745,0.2777274,-3.72,47.94,19.859999,-0.15659387,0.23382555,-0.18216023
1710733161577,1.0773908,-6.081272,-0.58418524,-6.12,46.62,22.98,-0.39627838,0.14647387,-0.16777915
1710733161682,0.49320555,-9.818622,-0.6440403,-6.06,45.719997,24.06,-0.011185277,0.09853696,-0.029827405
1710733161787,0.81402856,-9.988609,-0.533907,-6.3599997,45.539997,23.46,-0.027164243,0.08628642,-0.020240024
1710733161892,0.8810662,-9.502586,-0.4309563,-7.3799996,46.379997,23.64,0.047404267,-0.048469532,-0.0015978967
1710733161998,0.6919243,-9.504981,-0.31603462,-6.06,45.899998,22.8,0.03888215,-0.113983296,0.08149273
1710733162103,0.63206923,-9.660604,-0.10055647,-5.4,47.039997,23.34,0.056459017,-0.27537087,0.16990969
1710733162209,0.7781156,-10.2495775,-0.21068975,-5.22,45.84,22.38,-0.048469532,0.47723848,-0.37390783
1710733162313,1.0726024,-9.835381,-0.08140286,-7.3199997,45.96,22.32,-0.07456851,0.18002969,-0.09427591
1710733162418,0.6919243,-9.995792,-0.58657944,-8.04,46.68,22.74,-0.032490566,-0.11611383,0.1304949
1710733162523,0.49320555,-9.660604,-0.25857377,-7.2599998,45.84,22.56,0.06551377,-0.12516858,0.09427591
1710733162628,1.0726024,-9.737218,-0.29927522,-7.62,46.86,22.439999,0.103863284,0.0053263223,-0.03195793
1710733162732,0.9576807,-9.710882,-0.19632454,-7.2,45.96,22.08,0.16192019,-0.009054748,-0.017044231
1710733162842,1.0055647,-9.710882,0.021547815,-7.62,45.239998,22.199999,0.18482338,0.025566347,-0.017044231
1710733162947,1.0773908,-9.696517,0.32321724,-7.3199997,46.44,21.72,0.19281286,-0.025033714,-0.040480047
1710733163053,1.127669,-9.794679,0.61530983,-8.16,47.039997,19.8,0.07243799,-0.013848438,0.010652645
1710733163158,1.1683705,-9.691729,0.47644615,-7.3199997,47.039997,20.1,0.05486112,-0.03355583,0.024501082
1710733163262,1.091756,-9.677363,0.41180268,-8.22,47.879997,19.92,0.10013486,-0.022903185,-0.01438107
1710733163364,1.0079589,-9.68694,0.7038953,-8.5199995,47.34,19.619999,0.07989483,-0.034621093,-0.0010652645
1710733163464,1.0486604,-9.679757,0.61052144,-7.7999997,46.92,18.72,0.028229509,0.02396845,-0.03781689
1710733163578,1.1420342,-9.562442,0.7685388,-8.16,47.28,18.96,0.123038046,-0.023435818,-0.018109497
1710733163679,1.091756,-9.701305,0.7469909,-8.16,48.3,18.3,0.075101145,0.07137272,-0.049534798
1710733163784,1.3144168,-9.7084875,0.9696517,-8.22,48.239998,18.72,0.070307456,0.00958738,-0.014913702
1710733163889,1.2066777,-9.662998,1.0702082,-8.099999,48.059998,18.0,0.07456851,-0.015446335,-0.043675844
1710733163995,1.3024458,-9.603143,1.115698,-8.7,48.48,18.18,-5.326322E-4,0.00958738,-0.019707393
1710733164099,1.2785037,-9.588778,1.0366893,-9.179999,48.84,18.0,-0.077231675,0.011717909,-0.011717909
1710733164203,1.2210429,-9.651027,0.8355764,-8.76,47.7,17.34,-0.048469532,5.326322E-4,-0.00479369
1710733164310,1.0726024,-9.634268,0.90979666,-8.76,48.059998,18.0,0.0026631611,0.012250541,0.0015978967
1710733164415,-3.040636,-14.346057,3.3662477,-8.88,47.579998,17.82,0.12144015,-0.21252026,0.727043
1710733164516,-7.7093296,-5.6527104,2.042254,-2.04,49.68,15.059999,1.0977551,0.9012137,2.3728766
1710733164630,2.8993783,-5.896919,-0.830788,10.679999,50.039997,12.179999,0.41065946,0.8772453,3.0061762
1710733164731,-10.579977,-15.167268,-0.60333884,18.18,48.78,8.46,-0.13901702,1.2474247,-0.104928546
1710733164835,-3.8857894,-5.1116204,2.7509377,17.039999,48.239998,8.46,0.27324033,0.23808661,0.0031957934
1710733164932,-2.908955,-8.073248,3.3255463,17.34,48.12,7.02,0.3472762,-0.24394555,0.20559604
1710733165039,-5.00867,-10.702082,3.4524388,17.58,48.899998,6.0,-0.0063915867,0.21571605,0.017044231
1710733165147,-4.4699745,-7.762002,3.8307228,18.66,47.82,4.44,0.049002163,0.3254383,0.49854377
1710733165256,-5.142745,-7.577648,3.845088,20.46,47.7,5.58,-0.094808534,0.09321064,0.1470065
1710733165357,-4.8267107,-7.395689,4.5513773,20.939999,46.92,6.96,-0.62371236,0.14008227,-0.1949434
1710733165463,-5.3199162,-8.446744,1.4197617,19.199999,47.34,9.9,-0.48629323,-0.0479369,-0.5725796
1710733165569,-4.2161894,-15.873557,-0.7134721,17.279999,48.059998,10.38,0.28815404,-0.3685815,-0.18216023
1710733165672,-5.659893,-6.619968,-1.520318,19.14,46.86,8.94,-1.3859091,-2.2770028,1.383246
1710733165780,2.741361,-5.303157,-3.8594532,21.359999,43.739998,16.14,-2.747317,-2.3558323,0.10918961
1710733165887,8.47308,2.743755,15.492879,29.699999,35.04,16.98,-2.118811,-4.14015,-1.635181
1710733165990,-3.9217024,-8.860941,7.335834,27.779999,39.42,11.94,1.0801781,-0.7163904,-0.8612663
1710733166095,-3.6990416,-8.853758,1.0582372,25.8,41.399998,10.5,-0.32117724,-0.8926916,-0.35952675
1710733166200,-2.2098482,-9.148245,2.2098482,24.24,42.78,8.76,-0.004261058,-0.2625877,-0.37230992
1710733166307,-1.388637,-9.303867,2.0446482,24.0,43.92,8.76,-0.092145376,-0.19973709,0.08149273
1710733166411,-2.695871,-9.303867,1.5897499,25.5,42.84,8.22,-0.10226539,-0.034088463,0.221575
1710733166518,-1.3862427,-10.532093,0.7182605,26.279999,41.1,9.78,0.00479369,0.25246766,0.66525763
1710733166623,-3.5122938,-10.060435,0.7398083,28.619999,38.82,10.2,-0.11717909,0.07563378,1.2325109
1710733166731,-0.4261679,-7.656657,-0.5602432,33.719997,35.04,10.38,-1.0860372,-2.004295,0.4063984
1710733166836,-3.1028855,-8.389283,1.271321,34.739998,33.899998,6.2999997,-1.568602,-0.9219864,-0.9241169
1710733166939,-2.0590134,-9.694122,1.508347,32.28,36.18,7.2599998,-1.4476944,-3.0439932,-0.9550096
1710733167044,-2.896984,-9.301474,3.667917,31.019999,38.34,-0.84,-1.3369069,-3.5095139,-0.85487473
1710733167150,-11.944673,-8.774749,1.7932571,27.359999,42.48,-4.2599998,0.19387813,0.68336713,0.690824
1710733167256,-1.5562311,-10.168175,-0.7517793,27.359999,41.04,-4.02,0.2231729,-0.26897928,0.221575
1710733167359,-2.1021092,-9.548077,-0.59615624,28.32,40.68,-5.2799997,0.098004326,-0.06178534,-0.07137272
1710733167463,-1.5777789,-9.607931,-0.6799533,28.98,41.1,-5.22,0.10652645,0.007456851,0.030360037
1710733167567,-2.1092918,-9.665392,-0.11971009,28.439999,41.879997,-5.8799996,0.06231797,-0.07350325,0.048469532
1710733167673,-1.8770541,-9.526528,-0.34715924,28.56,40.92,-5.8199997,0.05912218,0.0053263223,0.050600063
1710733167775,-2.0590134,-9.586384,-0.12210429,29.099998,40.92,-6.8399997,0.033023197,-0.05752428,0.0644485
1710733167883,-2.078167,-9.557653,-0.22984336,28.859999,40.32,-6.7799997,0.013315806,-0.027696876,-5.326322E-4
1710733167988,-2.0207062,-9.591172,-0.19632454,28.32,40.2,-7.3799996,0.004261058,-0.025566347,0.014913702
1710733168091,-2.0446482,-9.619903,-0.17238252,29.34,40.26,-7.3199997,-0.010652645,-0.0026631611,0.02396845
1710733168197,-1.8722657,-9.540894,-0.2753332,28.56,40.62,-7.08,-0.03781689,0.010652645,0.013315806
1710733168303,-2.2744915,-9.514558,-0.3184288,29.58,40.079998,-6.72,-0.017044231,0.013315806,0.07350325
1710733168408,-2.3247697,-9.569624,-0.260968,29.699999,40.62,-6.18,-0.047404267,0.022370555,0.037284255
1710733168513,-2.2601264,-9.55047,-0.33518824,29.88,40.68,-7.02,-0.08575379,0.008522116,-0.0063915867
1710733168621,-2.1499932,-9.476251,-0.5674258,29.58,40.079998,-5.8799996,-0.04527374,-0.004261058,-0.016511599
1710733168725,-2.1906946,-9.605537,-0.38067806,29.82,39.84,-5.94,-0.022370555,5.326322E-4,0.01438107
1710733168833,-2.384625,-9.5385,-0.5746084,30.06,40.379997,-5.94,-0.05006743,5.326322E-4,-0.056459017
1710733168936,-1.9321208,-9.548077,-0.59615624,29.34,39.96,-5.7,-0.011717909,0.009054748,-0.08841695
1710733169042,-1.8890251,-9.574412,-0.47884035,28.619999,39.66,-5.52,0.0015978967,0.029294772,0.05965481
1710733169147,-2.2146366,-9.576807,-0.641646,29.58,40.2,-5.7599998,-0.002130529,-0.008522116,0.046871636
1710733169251,-2.2122424,-9.543288,-0.5434838,29.34,39.48,-5.8799996,-0.01917476,0.020772656,0.014913702
1710733169356,-2.3319526,-9.449914,-0.7350199,29.519999,39.899998,-5.94,-0.0015978967,0.033023197,0.025566347
1710733169460,-2.0853498,-9.543288,-0.62249243,29.82,40.559998,-5.58,-0.017576864,0.022370555,-0.029294772
1710733169565,-2.1978772,-9.516952,-0.61291564,30.06,40.26,-5.2799997,0.0053263223,0.00958738,0.0026631611
1710733169672,-2.1643584,-9.562442,-0.60333884,29.099998,40.02,-4.68,-0.007989483,0.010652645,-0.0015978967
1710733169778,-2.2002714,-9.581595,-0.61770403,29.519999,39.66,-4.68,0.0,0.011717909,0.004261058
1710733169881,-2.1021092,-9.579201,-0.61291564,29.519999,39.54,-4.98,-0.0026631611,-0.0063915867,0.002130529
1710733169987,-2.087744,-9.545682,-0.6392518,29.099998,39.719997,-4.2,0.017044231,-0.014913702,0.0479369
1710733170092,-2.2577322,-9.533711,-0.6631939,28.74,40.079998,-5.1,-5.326322E-4,-0.0063915867,-0.043675844
1710733170196,-2.0087352,-9.555259,-0.5674258,29.519999,40.44,-4.74,0.020772656,-0.0037284256,0.00479369
1710733170302,-2.219425,-9.533711,-0.6943185,29.34,39.84,-5.52,0.014913702,0.007989483,0.015446335
1710733170398,-2.0925324,-9.562442,-0.5650316,29.76,39.96,-5.16,-0.0063915867,-0.010652645,0.006924219
1710733170500,-2.2625206,-9.5385,-0.6607997,29.699999,40.379997,-5.58,-0.026631612,-0.0058589545,-0.024501082
1710733170609,-2.111686,-9.586384,-0.5746084,29.46,39.719997,-4.98,0.0015978967,-0.00479369,0.028229509
1710733170717,-2.3774424,-9.540894,-0.6440403,29.46,39.3,-5.64,0.00479369,0.008522116,0.018109497
1710733170826,-2.2290018,-9.560047,-0.59855044,29.34,40.32,-6.12,-0.014913702,0.011717909,-0.032490566
1710733170923,-2.1883004,-9.548077,-0.7062895,29.22,39.42,-5.16,-0.00479369,0.0058589545,0.008522116
1710733171031,-2.2720973,-9.548077,-0.7206547,29.699999,40.02,-4.98,-0.007989483,0.00479369,-0.0015978967
1710733171139,-2.1619642,-9.560047,-0.7398083,29.4,39.36,-4.8599997,-0.010120012,-0.008522116,-0.0053263223
1710733171244,-2.2577322,-9.512163,-0.6703765,29.76,40.26,-4.92,0.009054748,-0.007456851,0.02130529
1710733171350,-2.360683,-9.514558,-0.6464345,29.82,39.899998,-5.8799996,0.002130529,-0.02130529,0.004261058
1710733171456,-2.1667526,-9.509769,-0.7206547,29.099998,40.739998,-4.7999997,0.0026631611,-0.0127831735,-0.015978966
1710733171560,-2.27928,-9.528923,-0.61530983,29.699999,38.64,-6.3599997,0.037284255,-0.009054748,0.025566347
1710733171663,-2.1906946,-9.533711,-0.6536171,29.939999,40.14,-5.4,0.011717909,0.0058589545,-0.03781689
1710733171768,-2.1092918,-9.555259,-0.5554548,29.46,40.32,-6.3599997,0.02876214,-0.009054748,0.06338324
1710733171874,-2.3391352,-9.528923,-0.5650316,30.06,39.84,-5.8199997,0.020772656,-0.016511599,0.06178534
1710733171977,-2.4277205,-9.540894,-0.5602432,29.939999,39.66,-5.7,-0.002130529,-0.011717909,0.006924219
1710733172085,-2.291251,-9.500193,-0.60333884,30.179998,39.96,-5.16,-0.016511599,0.02609898,-0.049002163
1710733172191,-2.171541,-9.485827,-0.5602432,29.939999,39.059998,-5.64,-0.00958738,0.013848438,0.025033714
1710733172294,-2.3678656,-9.516952,-0.59615624,30.06,38.82,-4.98,-0.018109497,-0.0031957934,0.0127831735
1710733172397,-2.3702598,-9.528923,-0.5602432,29.939999,39.719997,-5.7599998,-0.034088463,0.020772656,0.00479369
1710733172504,-2.3558946,-9.478644,-0.6631939,30.539999,40.079998,-5.64,-0.019707393,0.020240024,-0.013848438
1710733172609,-2.2002714,-9.476251,-0.78050977,30.0,39.3,-4.7999997,-0.018109497,0.0031957934,-0.016511599
1710733172715,-2.183512,-9.52174,-0.7110779,30.0,39.6,-5.58,0.032490566,-0.032490566,0.029827405
1710733172819,-2.3798366,-9.516952,-0.6847417,30.179998,39.239998,-5.16,0.053263225,-0.0127831735,0.017044231
1710733172924,-2.3678656,-9.583989,-0.5746084,30.359999,40.14,-5.94,0.046871636,-0.0010652645,0.024501082
1710733173029,-2.2625206,-9.454702,-0.5770026,30.24,40.02,-6.3599997,0.027696876,0.00958738,-0.007456851
1710733173133,-2.3678656,-9.586384,-0.40462008,29.82,39.12,-5.52,0.017576864,-0.036218993,0.09054748
1710733173239,-2.5187001,-9.504981,-0.5530606,29.58,39.36,-6.66,-0.02396845,0.00958738,-0.049002163
1710733173346,-2.2625206,-9.497798,-0.62488663,30.119999,39.12,-5.3399997,-0.024501082,0.0127831735,-0.036218993
1710733173452,-2.243367,-9.488221,-0.6344634,29.64,39.239998,-6.42,-0.014913702,0.01438107,-0.007989483
1710733173556,-2.360683,-9.545682,-0.6512229,30.24,39.719997,-5.46,-0.017044231,0.0010652645,0.018642128
1710733173661,-2.2768857,-9.533711,-0.5602432,29.82,39.42,-5.2799997,-0.02396845,0.011717909,-0.034088463
1710733173766,-2.3654714,-9.459491,-0.6871359,30.06,39.54,-5.1,-0.011717909,0.0058589545,0.029827405
1710733173873,-2.5258827,-9.490616,-0.6967127,29.82,39.78,-4.74,-0.033023197,0.05273059,-0.06178534
1710733173978,-2.0853498,-9.555259,-0.7302315,29.76,39.96,-5.1,-0.01438107,0.013848438,-0.0063915867
1710733174084,-2.3391352,-9.476251,-0.7302315,29.76,39.899998,-4.68,0.033023197,-0.025566347,0.10439592
1710733174188,-2.6001031,-9.44752,-0.6823475,30.779999,39.54,-5.94,0.002130529,-0.022903185,0.03781689
1710733174293,-2.3319526,-9.516952,-0.6464345,29.64,39.18,-5.64,0.0063915867,-0.00958738,0.026631612
1710733174400,-2.540248,-9.471462,-0.6847417,30.42,39.719997,-5.3399997,-0.03888215,0.01917476,-0.061252706
1710733174504,-2.2505496,-9.483433,-0.79726917,29.64,39.059998,-4.92,-0.0010652645,-0.022370555,-0.043675844
1710733174608,-2.3678656,-9.507375,-0.6655881,29.34,39.239998,-4.74,0.008522116,-0.017044231,0.0015978967
1710733174712,-2.147599,-9.488221,-0.7398083,29.519999,39.12,-5.58,0.027696876,-0.022370555,0.020772656
1710733174820,-2.2816741,-9.481039,-0.62728083,30.0,39.66,-5.22,0.056459017,-0.0314253,0.07882957
1710733174924,-2.5091233,-9.514558,-0.5770026,29.88,39.239998,-4.44,0.022370555,-0.029294772,0.039947417
1710733175029,-2.5737667,-9.464279,-0.5793968,30.599998,39.18,-6.12,0.018642128,0.007989483,-0.008522116
1710733175135,-2.4708161,-9.445126,-0.5243302,30.48,39.0,-5.04,-5.326322E-4,0.010120012,-5.326322E-4
1710733175240,-2.540248,-9.509769,-0.58657944,30.779999,39.0,-5.64,0.0058589545,5.326322E-4,0.03195793
1710733175346,-2.4779987,-9.533711,-0.5315128,31.439999,39.059998,-5.94,0.006924219,0.012250541,0.019707393
1710733175450,-2.6001031,-9.409213,-0.59376204,30.96,38.879997,-5.7,-0.017576864,0.0314253,0.010120012
1710733175556,-2.4971523,-9.502586,-0.5793968,30.72,39.12,-5.1,-0.018109497,0.0053263223,-0.0031957934
1710733175660,-2.5210943,-9.471462,-0.60094464,31.08,39.719997,-5.58,0.010652645,0.0026631611,0.04261058
1710733175765,-2.5953147,-9.44752,-0.58897364,31.74,39.42,-5.58,0.01438107,0.004261058,0.018109497
1710733175870,-2.5785553,-9.476251,-0.5746084,30.599998,39.18,-5.64,-0.0058589545,-0.009054748,-0.0314253
1710733175975,-2.4947581,-9.437943,-0.5770026,30.24,39.66,-5.46,0.016511599,0.0037284256,-0.0063915867
1710733176080,-2.528277,-9.507375,-0.50517654,31.019999,38.28,-5.7599998,0.042077947,0.008522116,0.06657903
1710733176184,-2.767697,-9.437943,-0.533907,31.679998,37.739998,-5.46,0.025566347,-0.00479369,0.036218993
1710733176291,-2.4301147,-9.394848,-0.35673606,32.1,38.28,-5.2799997,0.048469532,-5.326322E-4,0.084155895
1710733176397,-2.96881,-9.452309,-0.2681506,32.28,37.14,-5.46,-0.020240024,0.013315806,0.06231797
1710733176503,-2.980781,-9.40203,-0.6943185,31.439999,38.28,-5.22,-0.016511599,0.015978966,-0.036751624
1710733176608,-2.8083985,-9.461885,-0.39504328,32.28,37.26,-5.7,0.04314321,-0.006924219,-0.009054748
1710733176715,-2.9161377,-9.3421755,-0.51954174,31.019999,38.34,-6.42,0.025033714,-0.039414786,-0.042077947
1710733176820,-2.504335,-9.382876,-0.32321724,30.72,38.34,-5.2799997,0.030360037,5.326322E-4,0.007456851
1710733176925,-2.8299465,-9.428367,-0.4381389,31.38,37.92,-6.18,0.053795855,0.03781689,0.05219796
1710733177030,-2.7509377,-9.306262,-0.34237084,31.74,37.8,-6.18,0.020772656,0.053263225,-0.015978966
1710733177135,-2.6839,-9.385271,-0.33997664,31.619999,38.16,-6.72,0.015446335,-0.002130529,0.029827405
1710733177240,-2.918532,-9.344569,-0.29688102,31.92,38.219997,-6.7799997,0.0127831735,-0.018109497,0.013315806
1710733177346,-2.767697,-9.399636,-0.31124622,31.859999,38.46,-6.48,-5.326322E-4,-0.015446335,-0.05912218
1710733177451,-2.6479871,-9.339781,-0.3878607,31.56,37.92,-6.48,0.025566347,0.012250541,-0.027164243
1710733177554,-2.908955,-9.442732,-0.22026655,31.019999,38.16,-5.7,0.04314321,0.02396845,-0.02396845
1710733177660,-2.468422,-9.543288,0.05267244,30.96,37.739998,-7.14,-0.018109497,0.035153728,-0.047404267
1710733177765,-2.408567,-9.425972,-0.25378537,31.5,38.76,-6.6,-0.10759171,-0.019707393,0.02876214
1710733177870,-2.554613,-9.361329,-0.6823475,31.619999,37.5,-6.24,-0.06977482,-0.028229509,0.096939065
1710733177975,-2.8107927,-9.49301,-0.38067806,31.439999,37.8,-6.18,-0.020772656,-0.008522116,0.014913702
1710733178081,-2.896984,-9.394848,-0.50038815,31.5,37.739998,-5.8799996,-0.01917476,0.0058589545,-0.075101145
1710733178187,-2.2888567,-9.449914,-0.36152446,31.199999,38.7,-6.24,0.0,-0.03195793,0.060720075
1710733178290,-3.4404678,-9.308656,-0.47644615,31.98,36.96,-6.0,0.002130529,-0.042077947,0.083090626
1710733178398,-2.9616275,-9.442732,-0.39504328,31.32,37.14,-6.48,0.02876214,0.013848438,-0.02876214
1710733178503,-2.504335,-9.382876,-0.51954174,31.679998,37.38,-6.0,0.0015978967,0.00479369,-0.025566347
1710733178607,-2.7341783,-9.363723,-0.4261679,31.859999,37.26,-6.3599997,0.029827405,-0.023435818,0.02130529
1710733178711,-3.0214825,-9.3661175,-0.2801216,31.5,37.739998,-6.6,0.020772656,0.011185277,-0.04527374
1710733178816,-2.755726,-9.390059,-0.25857377,31.679998,37.68,-6.12,-0.01917476,0.025033714,-0.05219796
1710733178923,-2.6001031,-9.380483,-0.2896984,30.9,37.68,-6.18,-0.027696876,-0.011185277,0.015978966
1710733179027,-2.6910827,-9.375694,-0.45489833,31.5,37.98,-6.24,-0.030360037,-0.0031957934,0.07882957
1710733179131,-3.0454245,-9.248801,-0.48123455,31.859999,37.32,-6.24,-0.017576864,0.007989483,0.04580637
1710733179235,-2.789245,-9.442732,-0.3184288,31.679998,37.92,-5.7,-0.06657903,-0.0053263223,0.0314253
1710733179342,-2.8083985,-9.3661175,-0.6344634,31.14,37.26,-5.3399997,-0.06870956,-0.026631612,0.03781689
1710733179447,-2.8395233,-9.325416,-0.6655881,31.74,36.78,-5.94,-0.018642128,-0.035153728,0.0127831735
1710733179552,-2.966416,-9.358934,-0.58418524,32.46,37.32,-6.24,-0.011717909,0.014913702,-0.04580637
1710733179657,-2.9712043,-9.227253,-0.62009823,31.5,37.44,-5.3399997,-0.010120012,0.00479369,-0.053263225
1710733179763,-2.791639,-9.473856,-0.6607997,31.56,38.16,-5.16,0.03568636,0.020772656,-0.06231797
1710733179867,-2.6503813,-9.409213,-0.5243302,31.5,38.34,-5.64,0.02130529,0.027696876,-0.05273059
1710733179971,-2.705448,-9.356541,-0.5243302,30.779999,38.76,-5.58,0.025566347,-0.0031957934,0.021837922
1710733180069,-2.8802247,-9.368511,-0.51954174,31.38,38.219997,-5.64,0.0037284256,5.326322E-4,0.007456851
1710733180177,-2.480393,-9.392453,-0.6799533,31.56,37.86,-5.94,-0.01438107,-0.00958738,-0.03089267
1710733180285,-2.8874073,-9.404425,-0.51235914,31.32,37.92,-5.7,-0.01438107,-0.0063915867,-0.028229509
1710733180384,-2.6072857,-9.435549,-0.5315128,31.08,38.52,-5.7599998,-0.04261058,-0.01438107,-0.053263225
1710733180494,-2.5210943,-9.409213,-0.7206547,31.5,37.92,-6.18,-5.326322E-4,-0.011717909,-0.039947417
1710733180599,-2.4420857,-9.440337,-0.51954174,31.8,38.579998,-5.16,0.02876214,-0.020240024,0.043675844
1710733180703,-2.7964275,-9.421184,-0.5722142,31.019999,36.899998,-6.06,-0.01438107,-0.034088463,0.037284255
1710733180808,-2.5905263,-9.442732,-0.49081135,31.019999,38.34,-6.54,0.01438107,0.0037284256,0.027164243
1710733180914,-2.777274,-9.385271,-0.59376204,31.199999,38.1,-5.64,-0.00958738,0.006924219,-0.02396845
1710733181019,-2.504335,-9.435549,-0.51714754,31.26,37.98,-5.7599998,-0.0037284256,-0.007989483,0.017044231
1710733181123,-2.822764,-9.425972,-0.5602432,31.619999,38.399998,-6.06,-0.015446335,-0.007456851,0.0053263223
1710733181230,-2.7700913,-9.459491,-0.5626374,31.26,37.86,-6.12,-0.025033714,0.01917476,-0.03781689
1710733181334,-2.6312277,-9.370906,-0.6560113,30.84,38.28,-6.18,-0.0063915867,0.03089267,-0.053263225
1710733181441,-2.5139117,-9.452309,-0.5746084,30.779999,39.0,-5.58,-0.011185277,0.021837922,-0.006924219
1710733181547,-2.5809495,-9.43076,-0.60333884,31.019999,37.8,-5.7,-0.043675844,0.010120012,-0.0010652645
1710733181652,-2.5474305,-9.361329,-0.7302315,30.66,38.7,-5.64,-0.05912218,0.0053263223,0.043675844
1710733181758,-2.6719291,-9.459491,-0.82121116,30.72,37.86,-4.56,-0.0010652645,-0.012250541,0.087884314
1710733181863,-2.719813,-9.380483,-0.79248077,30.96,38.219997,-4.62,-0.018109497,0.027164243,0.004261058
1710733181968,-2.813187,-9.394848,-0.7613561,31.5,38.28,-4.44,0.0058589545,0.07829694,0.0479369
1710733182073,-2.858677,-9.334992,-0.78529817,31.56,38.28,-4.3199997,-0.05273059,0.041012682,-0.032490566
1710733182179,-2.6910827,-9.526528,-0.79248077,32.04,38.04,-4.44,-0.020240024,-0.00958738,0.1107875
1710733182284,-3.0190883,-9.210494,-1.0534488,31.619999,37.62,-3.84,-0.01438107,0.05006743,0.04261058
1710733182389,-2.7269957,-9.40203,-0.82121116,32.52,37.92,-5.1,-0.002130529,0.0063915867,-0.0037284256
1710733182494,-2.858677,-9.325416,-0.81881696,31.92,37.32,-4.7999997,0.010120012,0.010652645,0.029827405
1710733182600,-2.9712043,-9.260772,-0.9648633,31.8,37.2,-4.44,-0.03195793,-0.007456851,0.02130529
1710733182702,-3.2034419,-9.296685,-1.0079589,32.579998,36.96,-5.04,0.0053263223,-0.010120012,0.0058589545
1710733182808,-2.9472623,-9.306262,-0.9720459,31.859999,37.44,-3.3,0.0127831735,-0.00479369,-0.049534798
1710733182916,-2.7964275,-9.3733,-0.8523358,31.74,37.44,-4.38,0.0053263223,-5.326322E-4,-0.042077947
1710733183012,-2.669535,-9.299079,-0.8571242,32.16,37.62,-4.02,-0.010120012,-0.018109497,0.016511599
1710733183118,-3.110068,-9.368511,-0.91937345,32.16,37.38,-4.5,0.025566347,0.013848438,0.061252706
1710733183216,-3.2130187,-9.294291,-0.94570965,31.56,37.739998,-3.8999999,0.06657903,-0.0026631611,-0.024501082
1710733183323,-2.8275523,-9.370906,-0.7422025,32.399998,37.5,-4.5,0.099069595,-0.03834952,-0.00479369
1710733183434,-3.028665,-9.32781,-0.50517654,31.14,37.38,-4.3199997,0.06977482,-0.032490566,-0.04314321
1710733183527,-2.908955,-9.423578,-0.581791,31.679998,37.26,-5.2799997,0.039414786,-0.06551377,-0.11504856
1710733183637,-2.6312277,-9.452309,-0.45489833,31.439999,37.739998,-5.8199997,0.026631612,-0.0479369,-0.1555286
1710733183744,-2.372654,-9.461885,-0.21787235,31.019999,38.28,-5.8799996,-0.036751624,0.03195793,0.07243799
1710733183850,-2.5330653,-9.445126,-0.7661445,31.019999,38.04,-6.06,-0.08468852,-0.061252706,-0.00958738
1710733183955,-2.554613,-9.469068,-0.7086837,30.96,38.7,-6.24,0.007989483,0.023435818,-0.08468852
1710733184058,-2.3439236,-9.454702,-0.58897364,30.179998,37.98,-5.52,0.044208474,0.029827405,0.02130529
1710733184162,-2.693477,-9.433155,-0.48362875,31.26,38.219997,-5.64,-0.007989483,0.019707393,0.087884314
1710733184269,-2.717419,-9.356541,-0.7182605,31.32,38.219997,-4.92,-0.02609898,-0.00479369,0.06551377
1710733184374,-2.9233203,-9.315839,-0.6392518,32.28,37.62,-5.7,0.07456851,0.035153728,0.058589544
1710733184479,-2.8514943,-9.390059,-0.51475334,31.859999,37.559998,-5.22,0.042077947,0.03195793,0.004261058
1710733184585,-2.8179753,-9.3182335,-0.56982,31.439999,37.14,-5.7599998,0.049002163,-0.0037284256,0.019707393
1710733184690,-2.9712043,-9.356541,-0.49081135,31.56,38.219997,-5.8799996,0.05219796,-0.034621093,-0.05912218
1710733184795,-2.633622,-9.437943,-0.32561144,31.439999,38.04,-5.52,0.06178534,-0.035153728,0.018109497
1710733184898,-2.8538885,-9.354146,-0.25139117,31.679998,37.68,-6.6,0.041545313,-0.00479369,0.09374327
1710733185005,-3.1268275,-9.289502,-0.33758244,32.46,36.84,-6.96,0.03195793,-0.0015978967,0.041012682
1710733185104,-2.9951463,-9.356541,-0.18674773,33.18,36.36,-6.06,0.018109497,-0.0063915867,-0.013315806
1710733185212,-2.9735985,-9.330204,-0.10055647,32.399998,36.899998,-6.96,-0.0127831735,0.03355583,-0.014913702
1710733185319,-2.8203697,-9.428367,-0.30166942,32.46,37.5,-7.62,-0.039414786,-0.03089267,0.012250541
1710733185424,-2.89459,-9.363723,-0.22505496,32.82,36.96,-6.8399997,0.032490566,0.006924219,0.01438107
1710733185529,-3.1411927,-9.301474,-0.21787235,32.64,36.96,-7.2599998,0.00479369,0.029294772,-0.007989483
1710733185634,-3.1148565,-9.344569,-0.1604115,31.74,37.739998,-6.8399997,-0.082558,-0.043675844,-0.10439592
1710733185738,-2.7629087,-9.334992,-0.8475474,31.679998,37.8,-7.3199997,0.026631612,-0.06338324,-0.07190535
1710733185845,-2.6360161,-9.421184,-0.20350714,31.619999,37.32,-6.8399997,0.19547603,-0.029294772,-0.12410331
1710733185951,-2.7126305,-9.351752,0.1604115,30.599998,38.04,-7.68,0.068176925,-0.07190535,-0.20772657
1710733186055,-2.1906946,-9.457097,-0.07182605,30.06,38.879997,-7.68,-0.033023197,-0.0644485,-0.105993815
1710733186159,-2.1787236,-9.459491,0.062249243,30.0,38.879997,-7.7999997,0.03195793,0.015978966,0.10279802
1710733186265,-2.834735,-9.354146,0.038307227,29.64,39.0,-8.46,-0.02609898,0.004261058,0.06338324
1710733186370,-2.5809495,-9.399636,-0.12689269,29.88,38.04,-8.5199995,-0.054328486,-0.009054748,-0.05486112
1710733186475,-2.516306,-9.380483,-0.15083471,30.06,39.239998,-7.9199996,-0.033023197,-0.015446335,-0.09321064
1710733186579,-1.8171991,-9.749189,0.14844051,30.42,38.52,-8.22,-0.049002163,-0.00479369,0.02609898
1710733186686,-2.5737667,-9.476251,-0.2705448,29.4,39.78,-8.22,-0.06764429,-0.020772656,-0.10279802
1710733186790,-2.0566192,-9.555259,-0.16519992,29.58,39.899998,-7.14,-0.049534798,0.028229509,-0.07137272
1710733186896,-2.0039468,-9.454702,-0.40940848,29.46,39.48,-7.68,-0.010120012,0.028229509,0.029827405
1710733187002,-2.2888567,-9.548077,-0.2801216,29.58,40.14,-6.8399997,0.0053263223,0.011185277,0.091080114
1710733187108,-2.2409728,-9.512163,-0.39264908,29.939999,39.54,-7.5,0.018109497,0.002130529,0.046339005
1710733187214,-2.3199813,-9.507375,-0.15801731,29.76,39.059998,-7.62,0.016511599,-0.007456851,0.07829694
1710733187319,-2.4971523,-9.459491,-0.31124622,30.119999,39.3,-7.74,-0.034621093,-0.011185277,-0.010120012
1710733187425,-2.4420857,-9.478644,-0.30166942,30.3,39.48,-7.02,0.020240024,-0.029827405,0.013315806
1710733187530,-2.4971523,-9.435549,-0.3184288,30.359999,38.94,-7.62,0.0127831735,-0.0015978967,-5.326322E-4
1710733187634,-2.3343468,-9.459491,-0.25857377,30.24,38.579998,-7.2599998,0.017576864,0.009054748,-0.034088463
1710733187733,-2.3415294,-9.428367,-0.23223756,30.24,38.64,-7.56,0.04261058,0.008522116,0.017044231
1710733187846,-2.5258827,-9.488221,-0.17717093,30.539999,38.82,-7.7999997,0.0479369,-0.019707393,0.07456851
1710733187951,-2.621651,-9.457097,-0.15083471,31.019999,38.76,-7.7999997,0.06178534,0.0,0.08735169
1710733188055,-2.6886885,-9.440337,-0.021547815,29.939999,39.18,-7.56,0.011185277,0.0314253,0.036751624
1710733188155,-2.6384103,-9.416395,-0.1340753,30.72,38.34,-7.3199997,-0.009054748,0.020240024,-0.015978966
1710733188263,-2.4779987,-9.495404,-0.059855044,30.84,37.98,-7.14,-0.05006743,0.026631612,-0.06231797
1710733188371,-2.6288335,-9.361329,-0.21068975,30.42,38.879997,-7.2599998,-0.0628506,-0.0031957934,-0.06551377
1710733188475,-2.5187001,-9.540894,-0.11971009,30.48,38.64,-7.2,-0.05006743,0.02609898,0.00479369
1710733188579,-2.3654714,-9.507375,-0.32321724,30.779999,39.12,-6.96,-0.011185277,0.030360037,0.1587244
1710733188686,-2.8443117,-9.339781,-0.37828386,31.439999,37.98,-7.56,0.002130529,0.025566347,0.1635181
1710733188788,-3.229778,-9.308656,-0.40222588,31.56,37.68,-6.24,-0.037284255,0.0314253,-0.049534798
1710733188896,-2.4301147,-9.3733,-0.50038815,31.08,38.28,-5.3399997,-0.0958738,0.007989483,-0.14008227
1710733189001,-2.825158,-9.476251,-0.46686932,30.72,38.52,-6.3599997,-0.046871636,0.006924219,-0.06977482
1710733189107,-2.4875755,-9.452309,-0.6584055,31.08,39.3,-6.0,-0.08042747,-0.0026631611,-0.18801917
1710733189212,-1.9273324,-9.49301,-0.6488287,29.64,40.5,-5.3399997,0.010652645,-0.012250541,-0.030360037
1710733189317,-0.2657564,-10.953473,-0.56982,30.24,39.6,-5.8199997,0.24181503,0.74302197,0.4000068
1710733189422,-2.645593,-9.514558,-0.60812724,31.439999,37.32,-3.72,0.72171664,0.7845673,0.42663842
1710733189526,-0.842759,-8.073248,-2.566584,32.88,36.719997,-4.7999997,-0.18216023,0.4133226,-1.1616709
1710733189632,-1.4221559,-9.911995,0.7517793,26.519999,43.2,-1.26,-0.75101143,-1.0162623,-2.0399814
1710733189737,4.939238,-12.672509,-2.9640217,21.72,46.8,-4.2599998,-0.13475595,-1.0998856,-0.18162759
1710733189842,-1.4508862,-9.43076,-0.7637503,22.8,46.86,-5.1,0.5363607,-0.48149952,0.34887412
1710733189947,-0.62009823,-10.21127,0.12928689,24.0,45.3,-8.639999,0.43196473,-0.30146983,0.25885928
1710733190051,-0.94810385,-9.80665,0.78290397,23.939999,43.559998,-11.04,0.26045716,-0.22690132,0.05273059
1710733190158,-0.93373865,-9.689334,0.44771573,24.119999,43.92,-10.74,0.17097494,-0.10173275,-0.11132014
1710733190263,-0.4405331,-9.7084875,0.8283938,22.74,44.64,-13.0199995,0.13848437,-0.10972224,-0.11025487
1710733190367,-0.581791,-9.78989,0.9744401,22.32,44.1,-12.719999,0.08149273,-0.040480047,-0.101200126
1710733190474,-0.9816227,-9.967062,0.81402856,22.02,44.219997,-13.799999,-0.015446335,-0.25246766,-0.4644553
1710733190579,2.908955,-9.552865,1.0486604,19.32,45.3,-13.799999,-0.18056233,0.025566347,-0.29987195
1710733190682,0.9600749,-9.703699,0.34476504,19.38,46.14,-12.78,-0.13102753,0.094808534,0.29507825
1710733190788,0.11492168,-9.77792,0.40701428,20.1,46.5,-12.12,-0.12783173,0.08468852,0.14594123
1710733190892,-0.18914193,-9.773131,0.16759412,21.18,46.14,-11.099999,-0.13422333,0.03888215,0.077231675
1710733190999,-0.011971008,-9.828198,0.18914193,21.84,45.42,-10.86,-0.041545313,-0.00958738,0.10333065
1710733191104,-0.23702596,-9.730036,0.2681506,22.439999,45.0,-10.98,-0.010120012,-0.023435818,0.19121496
1710733191209,-0.7182605,-9.825804,0.095768064,23.22,44.64,-10.74,-0.04314321,0.036218993,0.07137272
1710733191314,-0.34237084,-9.725247,0.074220255,22.68,45.48,-10.74,-0.05912218,0.0628506,-0.080960095
1710733191418,-0.12449849,-9.797073,-0.047884032,23.22,45.36,-10.559999,-0.00479369,0.033023197,0.027164243
1710733191522,-0.41180268,-9.775525,-0.019153614,23.1,44.82,-9.96,0.030360037,-0.008522116,0.05486112
1710733191626,-0.40462008,-9.744401,0.16280572,23.039999,44.94,-10.5,0.0026631611,-0.02130529,0.015446335
1710733191732,-0.58418524,-9.739613,0.0,22.8,45.059998,-10.38,0.004261058,-0.0010652645,0.0015978967
1710733191836,-0.4141969,-9.78989,0.08619126,22.92,44.52,-10.26,0.0037284256,0.010652645,-0.06498113
1710733191943,-0.36152446,-9.794679,0.05267244,22.56,45.0,-10.26,0.017576864,0.022370555,-0.03568636
1710733192047,-0.32561144,-9.734824,0.15083471,22.56,44.7,-10.86,0.0053263223,0.015978966,-0.049534798
1710733192151,-0.23702596,-9.809045,0.093373865,22.619999,45.059998,-9.96,0.004261058,-0.02396845,-0.04527374
1710733192258,-0.08619126,-9.773131,0.1340753,22.68,45.0,-10.2,0.022903185,-0.013315806,0.0031957934
1710733192363,-0.320823,-9.787497,0.15801731,22.26,45.18,-10.62,0.039947417,-0.02609898,-0.02396845
1710733192468,-0.2705448,-9.785102,0.2681506,22.56,45.42,-10.44,-0.0037284256,-0.020772656,-0.091080114
1710733192573,0.11731588,-9.689334,0.23463176,21.96,45.84,-10.8,0.01917476,-0.006924219,-0.028229509
1710733192679,-0.15801731,-9.8042555,0.22984336,22.02,45.12,-10.559999,0.0010652645,0.00479369,0.03089267
1710733192783,-0.20590134,-9.7803135,0.2801216,22.56,45.6,-11.46,-0.025566347,0.020772656,-0.03089267
1710733192889,-0.059855044,-9.76116,0.15562311,21.72,45.36,-10.5,-0.02876214,0.007456851,0.006924219
1710733192992,-0.20829555,-9.773131,0.14604631,21.84,45.96,-11.04,-0.032490566,0.01438107,-0.013848438
1710733193099,-0.1316811,-9.773131,0.08619126,21.24,45.78,-10.2,-0.04261058,0.025566347,-0.05219796
1710733193203,-0.011971008,-9.792285,0.01436521,21.3,45.899998,-10.2,-0.02876214,0.011185277,-0.034088463
1710733193310,0.04309563,-9.787497,0.019153614,21.6,46.379997,-10.32,-0.0053263223,0.011185277,0.022903185
1710733193415,-0.050278235,-9.765948,0.031124622,21.84,46.26,-10.26,0.0026631611,-0.0010652645,0.049002163
1710733193519,-0.1388637,-9.77792,0.033518825,21.539999,45.719997,-10.139999,0.016511599,-0.01917476,0.032490566
1710733193624,-0.110133275,-9.7803135,0.038307227,21.06,45.719997,-9.54,0.011717909,-0.025033714,0.043675844
1710733193729,-0.22266077,-9.7803135,0.06943185,21.9,45.239998,-10.98,-0.010652645,-0.0127831735,0.028229509
1710733193832,-0.22266077,-9.797073,0.076614454,21.66,46.14,-9.78,-0.02609898,0.007456851,0.0031957934
1710733193941,-0.20111294,-9.768343,-0.033518825,21.9,45.3,-9.42,-0.022903185,0.0053263223,-0.02876214
1710733194039,-0.2873042,-9.809045,-0.035913024,22.38,45.239998,-9.78,0.0031957934,0.03195793,-0.03568636
1710733194149,-0.15322891,-9.763555,0.033518825,22.02,45.539997,-9.599999,-0.05486112,0.033023197,-0.0958738
1710733194253,0.17238252,-9.753978,-0.19871874,21.06,46.68,-9.78,-0.043675844,-0.007456851,-0.03568636
1710733194357,0.0023942017,-9.775525,-0.095768064,21.119999,46.32,-9.9,0.007456851,-0.027164243,0.08948222
1710733194458,-0.23702596,-9.78989,-0.08619126,21.66,45.48,-9.719999,0.0058589545,-0.025566347,0.1486044
1710733194566,-0.545878,-9.818622,-0.023942016,22.859999,45.059998,-10.32,-0.013848438,0.01917476,0.07829694
1710733194674,-0.39025488,-9.742006,-0.17956513,22.92,46.02,-9.54,-0.020772656,0.016511599,-0.06551377
1710733194779,-0.17956513,-9.768343,-0.1388637,22.74,45.78,-9.12,0.006924219,0.012250541,0.034621093
1710733194884,-0.51475334,-9.768343,-0.10534488,23.34,45.18,-9.84,-0.021837922,0.017576864,-0.0058589545
1710733194990,-0.20590134,-9.847352,-0.14844051,22.5,45.3,-8.94,-0.040480047,0.012250541,-0.039947417
1710733195093,-0.17238252,-9.737218,-0.272939,22.8,45.18,-9.42,0.013848438,-0.007989483,0.041545313
1710733195200,-0.33518824,-9.768343,-0.1364695,22.14,45.3,-9.3,0.02609898,-0.017044231,0.048469532
1710733195306,-0.5506664,-9.765948,-0.15083471,21.6,45.0,-9.66,0.020240024,-0.0026631611,-0.014913702
1710733195412,-0.20829555,-9.828198,-0.074220255,22.8,45.3,-9.54,0.0314253,-0.0010652645,-0.06977482
1710733195518,-0.30885202,-9.76116,-0.076614454,22.32,45.719997,-9.719999,0.035153728,-0.007989483,-0.022370555
1710733195622,-0.22744916,-9.799467,0.08140286,22.32,46.26,-9.179999,0.0063915867,0.01917476,-0.041012682
1710733195726,-0.17717093,-9.811439,-0.1364695,22.32,45.539997,-9.96,-0.010120012,0.033023197,-0.10333065
1710733195830,0.05746084,-9.799467,-0.076614454,21.66,45.3,-9.48,0.027696876,-0.012250541,-0.027164243
1710733195935,-0.2753332,-9.792285,-0.05267244,21.84,46.14,-9.84,0.039947417,-0.013848438,-0.00479369
1710733196039,-0.062249243,-9.840169,0.06943185,20.699999,46.14,-9.54,0.022903185,0.007456851,-0.07403588
1710733196148,0.17477672,-9.758766,-0.031124622,20.939999,46.379997,-9.9,0.037284255,-0.019707393,-0.007456851
1710733196249,-0.07182605,-9.933543,0.19153613,20.82,46.559998,-10.559999,0.046339005,0.008522116,-0.007456851
1710733196354,0.062249243,-9.725247,0.17238252,21.66,45.6,-10.44,0.022903185,0.022903185,-0.09161274
1710733196462,0.35434186,-9.782708,0.15801731,21.18,46.5,-11.099999,0.03195793,-0.030360037,0.0127831735
1710733196568,-0.021547815,-9.775525,0.22984336,21.119999,45.899998,-10.92,0.026631612,-0.025566347,0.06338324
1710733196672,0.009576807,-9.765948,0.2633622,21.119999,45.899998,-10.74,-0.002130529,-0.023435818,0.011717909
1710733196778,0.007182605,-9.734824,0.088585466,21.6,45.18,-10.8,0.036218993,-0.023435818,-0.0015978967
1710733196884,-0.12210429,-9.770737,0.2896984,21.359999,45.96,-11.219999,0.06018744,-0.02396845,-0.036218993
1710733196990,0.15801731,-9.65821,0.31364042,21.24,45.48,-11.58,0.091080114,-0.019707393,-0.082025364
1710733197095,0.30645782,-9.794679,0.59855044,19.98,46.86,-12.059999,0.12783173,-0.05539375,0.02876214
1710733197200,-0.016759412,-9.811439,0.7781156,21.359999,44.879997,-12.9,0.13741912,-0.029294772,0.13582122
1710733197305,-0.18914193,-9.744401,0.7110779,21.24,44.94,-13.139999,0.10865697,0.041545313,0.06338324
1710733197411,-0.055066638,-9.730036,0.80205756,22.56,44.94,-14.4,0.08468852,-0.039947417,-0.007456851
1710733197516,0.15562311,-9.698911,0.91219085,22.02,44.7,-13.86,0.07456851,-0.036218993,0.09427591
1710733197620,-0.22744916,-9.648633,0.9672575,21.96,44.399998,-14.46,0.051665325,-0.009054748,0.13156016
1710733197726,-0.5315128,-9.713276,1.0606314,21.6,43.86,-15.059999,-0.008522116,0.016511599,0.0010652645
1710733197831,-0.44771573,-9.7563715,0.9696517,22.619999,44.28,-14.28,-0.077231675,0.05912218,-0.15180019
1710733197936,0.06464344,-9.682152,0.8355764,21.359999,44.7,-13.74,-0.037284255,-0.010120012,-0.11025487
1710733198039,0.01436521,-9.730036,0.79487497,20.939999,44.1,-14.099999,0.05006743,-0.0974717,0.016511599
1710733198148,-0.33518824,-9.605537,1.127669,21.06,44.52,-14.7,0.06018744,-0.0628506,0.1736381
1710733198245,-0.34715924,-9.765948,0.9624691,21.66,43.68,-14.639999,0.01438107,-0.053263225,0.0031957934
1710733198351,-0.1388637,-9.691729,0.91937345,21.96,43.62,-15.24,0.011185277,0.013848438,-0.012250541
1710733198461,-0.1412579,-9.701305,0.92655605,21.0,44.46,-14.4,0.01917476,-0.0026631611,0.01438107
1710733198566,-0.093373865,-9.64145,1.0007763,21.18,44.28,-14.5199995,0.06551377,-0.011185277,0.06870956
1710733198665,-0.31124622,-9.68694,1.1611878,21.42,43.32,-15.299999,0.06977482,0.036218993,0.05486112
1710733198773,-0.4357447,-9.763555,1.2162545,22.32,43.32,-14.94,-0.0010652645,-0.03568636,-0.0058589545
1710733198877,-0.24899697,-9.689334,1.067814,22.26,43.559998,-15.599999,-0.05539375,0.0127831735,-0.0127831735
1710733198984,-0.33518824,-9.765948,1.1228806,21.72,44.16,-15.54,-0.068176925,0.022370555,-0.00958738
1710733199091,-0.110133275,-9.634268,0.9696517,21.84,43.92,-14.94,-0.07084008,0.041545313,-0.04474111
1710733199198,-0.19153613,-9.65821,0.9504981,22.38,43.98,-13.98,-0.046339005,0.01917476,0.06657903
1710733199301,-0.50517654,-9.725247,0.8714894,21.539999,44.1,-14.04,-0.058056913,0.012250541,0.05486112
1710733199407,-0.46926352,-9.715671,0.8738836,22.26,44.46,-13.62,-0.054328486,0.007456851,-0.00479369
1710733199508,-0.533907,-9.7324295,0.7685388,21.48,43.8,-13.98,-0.051665325,0.013848438,-0.030360037
1710733199616,-0.20111294,-9.720459,0.7517793,21.6,44.94,-13.92,-0.032490566,0.019707393,-0.034088463
1710733199720,-0.32321724,-9.746795,0.7517793,22.859999,44.82,-13.0199995,-0.036218993,0.018109497,-0.026631612
1710733199827,-0.19153613,-9.751583,0.62967503,22.92,44.399998,-13.139999,-0.029294772,-0.0037284256,-0.049002163
1710733199932,-0.17238252,-9.782708,0.5530606,21.72,44.34,-12.84,-0.010652645,-0.0031957934,-0.019707393
1710733200038,-0.095768064,-9.742006,0.60812724,21.96,44.7,-12.599999,0.02396845,-0.017044231,-0.024501082
1710733200142,-0.088585466,-9.739613,0.6536171,21.119999,43.92,-13.38,0.036751624,-0.024501082,0.053263225
1710733200248,-0.29448682,-9.722853,0.6943185,21.6,44.76,-13.679999,0.02130529,-0.002130529,0.04580637
1710733200351,-0.320823,-9.749189,0.6631939,22.38,44.219997,-13.74,-0.012250541,0.0127831735,-0.02396845
1710733200458,-0.19871874,-9.7563715,0.63206923,21.72,44.94,-13.08,-0.01438107,0.022370555,-0.043675844
1710733200562,-0.088585466,-9.737218,0.59855044,21.72,44.82,-13.38,-0.007456851,0.020240024,-0.029294772
1710733200666,-0.076614454,-9.734824,0.62728083,21.359999,44.879997,-14.099999,0.015978966,-0.03089267,0.00958738
1710733200773,-0.23702596,-9.722853,0.6823475,21.84,44.52,-13.08,0.0127831735,-0.023435818,0.034088463
1710733200877,-0.24660277,-9.749189,0.7134721,21.779999,44.34,-13.679999,-0.01438107,-0.010120012,0.013848438
1710733200983,-0.2825158,-9.744401,0.62967503,21.6,44.34,-13.74,-0.03195793,0.0058589545,-0.0314253
1710733201087,-0.093373865,-9.7563715,0.60333884,21.779999,44.7,-13.799999,-0.02130529,-5.326322E-4,-0.021837922
1710733201194,-0.11971009,-9.746795,0.6679823,21.539999,45.539997,-13.259999,-0.013315806,0.032490566,-0.012250541
1710733201300,-0.107739076,-9.751583,0.61530983,21.66,44.579998,-14.04,-0.022903185,0.0037284256,-0.009054748
1710733201403,-0.17477672,-9.739613,0.62967503,21.18,44.46,-12.78,-0.02396845,-0.018109497,-0.02609898
1710733201511,-0.06703765,-9.763555,0.50278234,21.06,44.82,-13.38,-0.036218993,-0.02396845,-0.06551377
1710733201617,0.09816227,-9.706094,0.4381389,21.48,44.52,-13.259999,-0.05006743,-0.040480047,-0.06231797
1710733201720,0.04309563,-9.77792,0.36870706,20.34,45.719997,-12.48,-0.029294772,-0.00479369,0.015446335
1710733201825,-0.062249243,-9.7324295,0.30645782,20.4,45.539997,-12.36,-0.027696876,0.022903185,-0.054328486
1710733201930,0.19632454,-9.713276,0.35673606,20.699999,46.02,-12.9,-0.0015978967,5.326322E-4,-0.024501082
1710733202035,0.04070143,-9.768343,0.44771573,21.42,46.079998,-12.059999,0.03089267,-0.0058589545,0.101200126
1710733202141,-0.18914193,-9.785102,0.47884035,20.939999,45.539997,-12.24,0.013848438,0.013848438,0.0644485
1710733202247,-0.17238252,-9.770737,0.49081135,21.359999,45.48,-12.599999,5.326322E-4,0.017044231,0.053263225
1710733202355,-0.14604631,-9.737218,0.4381389,21.66,44.64,-12.42,-0.015978966,0.04527374,0.05006743
1710733202454,-0.18914193,-9.76116,0.3854665,21.6,45.12,-12.599999,-0.024501082,0.024501082,-0.03089267
1710733202562,-0.01436521,-9.765948,0.33997664,21.96,46.26,-12.599999,-0.034088463,-0.00958738,-0.018642128
1710733202667,-0.10295067,-9.782708,0.32561144,21.24,44.76,-11.5199995,-0.011717909,-0.007456851,-0.0058589545
1710733202772,-0.062249243,-9.749189,0.34715924,21.48,46.02,-12.24,-0.011717909,-0.02396845,-0.044208474
1710733202876,0.093373865,-9.768343,0.2657564,20.939999,45.059998,-12.24,0.0053263223,-0.009054748,0.01917476
1710733202983,-0.095768064,-9.770737,0.37588966,21.539999,45.48,-11.28,-0.007456851,0.029827405,0.02876214
1710733203087,-0.12689269,-9.765948,0.2801216,21.0,45.719997,-12.179999,0.002130529,0.020772656,0.023435818
1710733203191,-0.16519992,-9.78989,0.33997664,21.66,45.3,-12.059999,0.011185277,0.013315806,0.070307456
1710733203298,-0.17956513,-9.7563715,0.29209262,21.84,45.239998,-12.3,0.008522116,0.002130529,0.032490566
1710733203396,-0.272939,-9.7563715,0.33997664,21.9,44.76,-11.88,0.027164243,0.016511599,0.0314253
1710733203514,-0.25617957,-9.751583,0.4285621,21.9,44.82,-12.3,0.017576864,-0.0026631611,0.0127831735
1710733203612,-0.23702596,-9.763555,0.4261679,21.6,45.42,-12.42,0.015446335,0.0026631611,0.03089267
1710733203719,-0.33518824,-9.737218,0.4141969,22.02,44.1,-12.9,0.011185277,-0.028229509,0.027164243
1710733203825,-0.41180268,-9.739613,0.47405192,22.68,43.92,-13.259999,0.011717909,-0.007456851,0.040480047
1710733203930,-0.5363012,-9.744401,0.39743748,22.199999,44.34,-12.599999,-0.0010652645,0.03781689,-0.05486112
1710733204034,-0.093373865,-9.665392,0.45729253,22.56,43.5,-12.059999,0.028229509,0.0058589545,-0.017576864
1710733204135,-0.41180268,-9.730036,0.4333505,21.42,44.82,-12.54,-5.326322E-4,0.02130529,0.03195793
1710733204242,-0.3878607,-9.758766,0.5410896,22.74,44.34,-12.3,0.033023197,0.022903185,-0.034621093
1710733204350,-0.39504328,-9.751583,0.49799395,22.68,44.399998,-12.84,-0.033023197,0.029827405,-0.11558119
1710733204455,-0.0023942017,-9.720459,0.34237084,21.18,45.96,-12.719999,-0.019707393,0.019707393,-0.11771172
1710733204560,-0.06943185,-9.751583,0.39025488,22.02,45.12,-12.36,0.0063915867,-0.015978966,0.034621093
1710733204665,-0.23463176,-9.648633,0.31603462,22.02,45.18,-12.96,0.041545313,-0.04314321,0.008522116
1710733204770,-0.16519992,-9.768343,0.50038815,21.84,44.879997,-12.84,0.098004326,-0.092145376,0.10013486
1710733204875,-0.11492168,-9.7324295,0.6967127,21.9,45.12,-13.74,0.14807177,-0.092145376,0.24714136
1710733204980,-0.5291186,-9.598354,0.91697925,23.4,44.1,-14.5199995,0.11664646,0.03089267,0.27324033
1710733205085,-0.92655605,-9.607931,1.1085154,24.72,43.739998,-14.46,-0.028229509,0.120907515,0.25566345
1710733205192,-0.46686932,-9.662998,0.8714894,25.5,41.7,-14.099999,-0.04527374,0.1257012,0.5044027
1710733205295,-3.181894,-9.593566,0.60333884,27.48,39.899998,-13.32,0.096939065,-0.004261058,0.26631612
1710733205401,-2.0709844,-9.76116,0.830788,27.779999,40.14,-13.74,-0.043675844,0.046339005,-0.57311225
1710733205506,-0.79726917,-9.576807,0.59615624,24.96,42.899998,-14.82,0.033023197,0.08575379,-0.8996158
1710733205611,-0.78769237,-9.998186,1.0199299,21.359999,44.82,-13.559999,-0.28336033,0.108124346,-0.53795856
1710733205715,1.2306197,-9.524135,0.8355764,19.74,45.84,-13.2,-0.2711098,0.053795855,-0.101200126
1710733205823,-0.60573304,-9.859323,-0.11731588,19.92,46.32,-11.5199995,-0.24767399,0.12463594,-0.13475595
1710733205928,1.1971009,-9.701305,0.019153614,20.279999,47.039997,-10.5,-0.1917476,-0.075101145,0.08735169
1710733206033,-0.079008654,-9.730036,-0.4405331,19.859999,47.1,-10.0199995,-0.10972224,0.076166406,0.16724652
1710733206138,0.51954174,-9.648633,-0.32800564,21.119999,47.039997,-9.0,-0.06018744,0.13848437,-0.01438107
1710733206243,-0.038307227,-9.911995,-0.1412579,21.0,46.559998,-8.22,-0.055926383,-0.10546118,0.098004326
1710733206348,-0.18435353,-9.861717,-0.33518824,21.0,46.44,-9.84,0.002130529,-0.028229509,0.053795855
1710733206453,0.04309563,-9.737218,-0.4261679,20.88,46.379997,-9.599999,-0.023435818,0.011717909,0.0031957934
1710733206557,-0.12449849,-9.742006,-0.39025488,21.3,46.079998,-9.059999,0.018642128,0.027696876,0.06231797
1710733206666,-0.24181437,-9.794679,-0.12928689,21.84,45.84,-9.12,-0.02130529,0.006924219,0.047404267
1710733206769,-0.110133275,-9.861717,-0.24660277,21.9,45.96,-9.719999,-0.014913702,-0.008522116,0.015978966
1710733206875,-0.47884035,-9.773131,-0.28491,21.66,46.5,-9.719999,-0.017576864,0.025033714,0.011717909
1710733206979,-0.21547815,-9.794679,-0.3854665,22.26,46.62,-8.22,-0.035153728,0.03888215,-0.04314321
1710733207083,0.059855044,-9.82341,-0.4141969,21.779999,46.14,-8.58,-0.021837922,0.035153728,-0.0628506
1710733207188,0.011971008,-9.801862,-0.48123455,20.82,46.02,-8.94,0.0058589545,0.027696876,-0.0037284256
1710733207291,0.32321724,-9.689334,-0.6488287,21.779999,46.62,-8.04,0.05006743,0.017576864,0.076166406
1710733207400,-0.0023942017,-9.76116,-0.4237737,22.08,46.2,-9.3,0.113983296,-0.011717909,0.13369069
1710733207504,-0.15083471,-9.770737,-0.06703765,23.22,44.52,-9.059999,0.07084008,-0.068176925,0.15180019
1710733207609,-0.81642276,-9.744401,-0.16519992,23.16,44.94,-10.44,0.008522116,-0.041545313,-0.025033714
1710733207714,-0.35913026,-9.787497,-0.08379706,23.279999,45.12,-9.84,-0.002130529,0.0314253,-0.056991648
1710733207820,-0.47405192,-9.753978,-0.079008654,22.56,45.539997,-10.26,-0.01438107,-0.009054748,-0.07669904
1710733207924,-0.3184288,-9.847352,-0.1604115,22.74,45.3,-9.84,-0.029827405,0.022370555,-0.1555286
1710733208028,0.08140286,-9.797073,-0.23942018,21.18,46.92,-8.88,-0.06391586,0.043675844,-0.2396845
1710733208135,0.4261679,-9.77792,-0.37588966,20.939999,46.86,-9.54,-0.024501082,-0.05486112,-0.08735169
1710733208240,0.10295067,-9.80665,-0.2825158,20.58,48.18,-9.42,0.00479369,-0.039947417,0.099069595
1710733208345,0.17477672,-9.809045,-0.23223756,20.4,46.92,-8.94,-0.02396845,-0.006924219,0.039414786
1710733208450,0.06943185,-9.816227,-0.38307226,21.66,46.92,-9.599999,-0.027696876,0.013315806,0.013848438
1710733208555,0.009576807,-9.77792,-0.39264908,21.119999,47.219997,-8.82,0.0026631611,-0.018109497,0.017044231
1710733208659,-0.02633622,-9.746795,-0.37110126,21.72,46.44,-8.7,0.014913702,-0.006924219,0.012250541
1710733208766,0.045489833,-9.76116,-0.31603462,21.119999,46.26,-9.24,0.030360037,0.013315806,0.0031957934
1710733208871,-0.04070143,-9.787497,-0.29688102,21.119999,46.62,-8.58,0.010120012,0.008522116,0.0053263223
1710733208976,-0.031124622,-9.842564,-0.31124622,21.3,46.5,-8.639999,0.01917476,0.033023197,0.009054748
1710733209081,0.15562311,-9.832987,-0.33997664,21.0,46.32,-8.4,0.013315806,0.002130529,-0.04474111
1710733209187,-0.090979666,-9.813833,-0.2777274,21.66,46.5,-8.82,0.007989483,0.002130529,-0.06178534
1710733209291,0.11971009,-9.794679,-0.23942018,21.119999,47.46,-9.78,0.020240024,-0.008522116,-0.027164243
1710733209395,0.19632454,-9.797073,-0.20350714,20.76,47.1,-9.36,0.024501082,-0.006924219,-0.0010652645
1710733209498,0.093373865,-9.785102,-0.15322891,21.0,46.26,-9.66,0.021837922,0.010652645,-0.011717909
1710733209606,0.11731588,-9.768343,-0.12689269,20.82,47.1,-9.96,0.028229509,0.0015978967,0.013315806
1710733209712,-0.047884032,-9.813833,-0.110133275,20.699999,46.32,-10.08,0.008522116,0.016511599,-0.039947417
1710733209815,0.33997664,-9.811439,-0.15322891,21.18,46.559998,-9.719999,-0.012250541,0.06498113,0.010120012
1710733209921,0.06464344,-9.809045,-0.04309563,21.42,47.1,-9.3,0.013315806,-0.01438107,0.02396845
1710733210026,0.06464344,-9.787497,-0.06703765,19.74,46.5,-9.24,0.017576864,-0.007456851,-0.008522116
1710733210127,0.18674773,-9.763555,-0.11492168,20.939999,46.62,-10.2,0.020240024,-0.0010652645,-0.01438107
1710733210234,0.272939,-9.785102,-0.023942016,20.82,46.44,-10.0199995,-0.0053263223,-0.004261058,-0.022370555
1710733210341,0.14604631,-9.770737,-0.107739076,20.58,47.399998,-10.8,-0.021837922,0.037284255,0.027696876
1710733210446,0.12449849,-9.746795,-0.25139117,21.18,46.5,-9.78,0.002130529,0.0127831735,-0.010120012
1710733210552,0.107739076,-9.773131,-0.090979666,21.06,47.7,-9.24,0.025033714,5.326322E-4,-0.03089267
1710733210656,0.32800564,-9.799467,-0.110133275,20.939999,46.26,-9.3,0.0314253,-0.0053263223,0.0026631611
1710733210761,0.14844051,-9.799467,-0.055066638,20.76,46.32,-10.32,0.03195793,0.0053263223,0.048469532
1710733210867,0.08379706,-9.828198,0.02633622,20.88,46.14,-11.099999,0.022903185,-0.02396845,0.041012682
1710733210971,0.08619126,-9.811439,0.01436521,21.9,46.02,-10.5,0.0015978967,-0.0031957934,-0.0010652645
1710733211075,0.19153613,-9.753978,0.02633622,21.3,46.92,-10.62,0.012250541,-0.0058589545,0.05752428
1710733211183,-0.21068975,-9.727641,-0.06943185,21.06,46.079998,-10.559999,0.015978966,-0.019707393,-0.083090626
1710733211287,0.50278234,-9.80665,-0.01436521,20.58,46.14,-11.04,0.03355583,-0.002130529,-0.0015978967
1710733211390,0.107739076,-9.725247,-0.009576807,21.3,46.86,-11.219999,0.0127831735,-0.082025364,0.03568636
1710733211497,-0.320823,-9.849746,0.04070143,20.22,46.5,-10.74,0.025566347,-0.009054748,0.0479369
1710733211602,0.09816227,-9.753978,0.15322891,21.48,45.78,-10.5,0.04580637,-0.028229509,0.113983296
1710733211707,-0.2633622,-10.024523,-0.06703765,21.96,45.12,-11.16,0.0793622,-0.0644485,0.19867182
1710733211812,-0.22026655,-9.744401,0.30406362,21.84,45.539997,-12.0,0.0793622,5.326322E-4,0.08522116
1710733211917,-0.36152446,-9.744401,0.45010993,22.38,45.18,-12.059999,0.030360037,0.024501082,0.18695392
1710733212023,-0.39743748,-9.825804,0.2873042,22.68,44.28,-12.179999,0.0127831735,0.10918961,0.17150758
1710733212127,-0.91219085,-9.7803135,0.31364042,23.46,43.98,-11.94,-0.022370555,0.03355583,-0.022903185
1710733212230,-0.48841715,-9.667787,0.18914193,23.88,43.8,-11.82,0.03781689,-0.040480047,-0.0010652645
1710733212337,-0.79487497,-9.7803135,0.4405331,23.4,43.079998,-11.4,0.09534117,-0.032490566,0.075101145
1710733212442,-0.878672,-9.749189,0.46926352,23.88,44.1,-12.36,0.08149273,-0.01917476,-0.06338324
1710733212547,-0.37588966,-9.718064,0.6967127,23.519999,43.5,-12.84,0.083090626,-0.026631612,-0.03781689
1710733212651,-0.7350199,-9.682152,0.51235914,23.46,43.68,-13.32,0.118776985,-0.08948222,-0.017576864
1710733212757,-0.92655605,-9.727641,0.60573304,23.939999,42.899998,-13.799999,0.15020229,0.036218993,-0.165116
1710733212860,-0.34715924,-9.701305,0.78769237,22.8,44.16,-13.44,0.20080236,-0.007989483,-0.17417073
1710733212969,0.5267244,-9.694122,1.2330139,22.02,43.14,-14.94,0.13475595,0.12197278,-0.13741912
1710733213062,-0.36870706,-9.672575,1.3742718,22.02,44.1,-15.059999,0.0793622,0.096939065,-0.05486112
1710733213175,0.33997664,-9.591172,1.388637,21.42,43.8,-14.759999,0.040480047,0.0314253,0.0793622
1710733213282,-0.47644615,-9.610326,1.3024458,22.08,43.379997,-15.42,-0.013315806,-0.084155895,0.12623383
1710733213389,-0.25378537,-9.595961,1.2617443,22.859999,43.079998,-16.56,-0.025566347,-0.09960223,0.14327806
1710733213495,-0.62488663,-9.672575,1.3311762,22.859999,42.36,-15.24,0.072970614,0.026631612,0.35260254
1710733213602,-1.3024458,-9.598354,1.2569559,25.019999,41.76,-16.5,0.1470065,0.13528858,0.44474792
1710733213707,-1.5777789,-9.753978,1.1085154,25.56,40.14,-16.02,0.05752428,0.03089267,0.017576864
1710733213814,-1.2234371,-9.3421755,1.9895816,26.279999,39.3,-17.699999,0.1603223,0.18961707,0.33129725
1710733213919,-1.7860745,-9.040505,2.1021092,28.199999,38.1,-16.859999,0.06657903,0.1486044,0.3110572
1710733214023,-1.2042835,-9.23683,2.195483,29.4,37.5,-16.8,-0.33981937,-0.015978966,0.1555286
1710733214129,-2.7365725,-9.442732,1.0031705,29.76,37.38,-15.36,-0.5954828,-0.082558,-0.05539375
1710733214235,-2.2960393,-9.454702,0.45729253,29.34,37.98,-13.62,-0.24554345,-0.1123854,-0.28815404
1710733214340,-1.7142484,-9.502586,0.9648633,27.359999,40.379997,-14.28,-0.08362326,-0.06657903,-0.4213121
1710733214445,-1.4101849,-9.572019,0.7781156,26.34,41.579998,-13.74,-0.19760656,-0.09534117,-0.38935417
1710733214550,-0.9720459,-9.61272,0.521936,24.96,43.32,-12.36,-0.19547603,-0.10279802,-0.3121225
1710733214655,-0.4381389,-9.68694,0.074220255,23.88,44.64,-11.759999,-0.06018744,0.082025364,-0.30306774
1710733214759,-0.5267244,-9.591172,0.46447513,21.96,45.3,-11.4,0.03568636,-0.07669904,-0.5422196
1710733214866,1.7717092,-9.337387,-0.25857377,20.16,47.52,-11.4,0.034088463,-0.18748654,-0.22423817
1710733214971,0.19632454,-9.7084875,0.4141969,19.859999,45.719997,-12.599999,0.40107206,-0.27537087,0.31265512
1710733215076,-0.8714894,-9.825804,0.58897364,20.939999,44.46,-14.88,0.39468047,-0.19228023,0.026631612
1710733215179,0.45010993,-9.646238,2.1284454,19.98,44.52,-17.16,0.21944448,-0.006924219,0.037284255
1710733215284,-0.30406362,-9.672575,1.2282255,21.18,43.8,-17.46,0.03089267,0.24341293,0.1587244
1710733215392,-0.12928689,-9.634268,1.376666,21.9,43.079998,-16.68,0.0010652645,0.08894958,-0.12836437
1710733215496,0.11252748,-9.540894,1.4628572,20.58,43.2,-17.58,-0.013848438,0.014913702,-0.29561087
1710733215600,0.7326257,-9.782708,1.6448165,20.58,44.219997,-15.719999,-0.11132014,-0.19121496,-0.1571265
1710733215707,0.45250413,-9.665392,1.5059528,19.68,44.76,-15.66,-0.17310548,0.05965481,0.00958738
1710733215803,0.40222588,-9.662998,0.90261406,19.02,45.18,-14.28,-0.22796659,0.037284255,-0.026631612
1710733215900,0.6560113,-9.646238,0.6775591,20.22,46.079998,-13.799999,-0.2247708,0.165116,0.02396845
1710733216010,0.1364695,-9.713276,0.5386954,20.22,45.78,-12.599999,-0.16618125,0.056991648,0.103863284
1710733216105,0.15562311,-9.730036,0.29688102,20.939999,45.96,-12.9,-0.16138756,0.03834952,0.080960095
1710733216215,-0.02873042,-9.753978,0.23463176,20.939999,46.079998,-11.88,-0.12783173,0.03888215,0.018642128
1710733216320,0.08379706,-9.78989,0.110133275,20.279999,45.66,-11.219999,-0.0974717,0.011717909,0.03355583
1710733216426,0.11971009,-9.773131,-0.031124622,21.18,46.62,-10.5,-0.05752428,0.0053263223,0.05486112
1710733216531,-0.16759412,-9.782708,-0.06703765,21.66,46.92,-10.5,-0.032490566,0.013315806,0.026631612
1710733216635,-0.05267244,-9.78989,-0.021547815,20.939999,45.84,-10.38,-0.03355583,0.034088463,0.01917476
1710733216739,-0.08140286,-9.773131,-0.07182605,21.96,45.84,-10.139999,-0.016511599,0.026631612,0.027696876
1710733216847,-0.21308395,-9.7563715,-0.0047884034,21.359999,46.26,-10.0199995,-0.007456851,0.020240024,0.0058589545
1710733216952,-0.20829555,-9.782708,-0.05746084,21.0,45.66,-9.719999,-0.007456851,0.024501082,-0.039414786
1710733217059,0.090979666,-9.797073,-0.038307227,22.02,46.68,-9.9,0.007989483,-0.0037284256,-0.042077947
1710733217158,-0.107739076,-9.832987,0.05746084,21.9,46.379997,-10.679999,0.026631612,-0.056459017,-0.027696876
1710733217267,0.08619126,-9.763555,-0.095768064,21.0,46.2,-9.84,0.0015978967,-0.017576864,-0.05219796
1710733217364,0.05267244,-9.751583,-0.062249243,21.539999,46.26,-10.08,0.02396845,-0.027696876,-0.015446335
1710733217474,0.11492168,-9.797073,0.016759412,20.82,46.8,-11.04,0.041545313,-0.0026631611,0.02876214
1710733217581,-0.038307227,-9.799467,0.1604115,21.6,45.059998,-10.5,0.006924219,0.020240024,0.010652645
1710733217689,0.076614454,-9.7803135,0.062249243,20.34,45.239998,-10.8,-0.0127831735,0.020772656,-0.040480047
1710733217796,0.076614454,-9.763555,0.0047884034,20.64,46.32,-10.0199995,-0.011717909,0.018109497,-0.027696876
1710733217899,0.19871874,-9.785102,-0.007182605,21.24,46.739998,-9.84,0.006924219,-0.015446335,-0.018642128
1710733218004,0.074220255,-9.765948,-0.007182605,20.1,46.44,-10.38,0.015446335,0.0,0.050600063
1710733218108,0.021547815,-9.77792,0.059855044,21.06,46.14,-10.98,0.029294772,-0.009054748,-0.0031957934
1710733218214,0.107739076,-9.794679,0.107739076,21.06,46.8,-11.099999,0.025566347,-0.03355583,-0.0053263223
1710733218319,0.06943185,-9.751583,0.074220255,21.24,46.379997,-10.98,0.01438107,-0.02130529,-0.020240024
1710733218423,0.20829555,-9.8042555,0.110133275,21.42,47.16,-10.92,0.011717909,-0.025566347,-0.0058589545
1710733218528,0.08140286,-9.813833,0.1412579,21.119999,45.96,-10.32,0.016511599,-0.020240024,0.007989483
1710733218633,0.06943185,-9.825804,0.19153613,20.76,46.26,-10.98,0.016511599,-0.018642128,0.021837922
1710733218741,0.079008654,-9.7803135,0.15083471,21.119999,45.899998,-11.219999,0.020772656,-0.0058589545,0.032490566
1710733218849,-0.088585466,-9.799467,0.22026655,21.0,46.079998,-11.4,0.012250541,0.008522116,0.013315806
1710733218954,0.08619126,-9.77792,0.20350714,20.88,45.719997,-11.58,0.011185277,-0.007989483,-0.011185277
1710733219060,0.08619126,-9.758766,0.2657564,20.939999,45.48,-10.92,-0.002130529,-0.0037284256,0.014913702
1710733219165,0.023942016,-9.77792,0.15083471,21.119999,45.0,-11.219999,0.0053263223,-0.010652645,0.0031957934
1710733219270,0.0023942017,-9.77792,0.22266077,20.939999,45.899998,-11.34,0.0053263223,0.0037284256,-0.0037284256
1710733219376,-0.031124622,-9.797073,0.16998832,20.939999,46.14,-11.759999,0.010120012,-0.015978966,-0.025566347
1710733219481,0.10055647,-9.751583,0.22984336,20.4,46.14,-10.86,0.01917476,0.009054748,-0.03781689
1710733219585,0.16759412,-9.797073,0.2825158,21.0,45.899998,-11.4,0.011717909,0.007989483,-0.00479369
1710733219689,0.21068975,-9.76116,0.2777274,20.52,45.719997,-12.36,0.011717909,0.009054748,-0.01438107
1710733219796,0.25857377,-9.782708,0.2873042,20.52,46.62,-11.94,0.025566347,-0.015978966,0.056991648
1710733219901,0.04070143,-9.706094,0.31364042,21.06,45.719997,-12.599999,0.03195793,-0.03781689,0.14168017
1710733220007,-0.21787235,-9.799467,0.30645782,21.539999,45.3,-11.94,0.030360037,-0.015446335,0.14327806
1710733220112,-0.045489833,-9.64145,0.23942018,22.439999,45.719997,-12.179999,0.029827405,-0.011185277,0.09321064
1710733220216,-0.56982,-9.773131,0.2873042,22.98,45.42,-12.24,-0.02130529,0.02609898,-0.018109497
1710733220321,-0.30166942,-9.8042555,0.3184288,22.56,45.18,-11.82,-0.01438107,0.0,-0.05486112
1710733220427,-0.29927522,-9.744401,0.2681506,21.96,45.059998,-11.82,-0.016511599,0.040480047,-0.06338324
1710733220531,-0.1388637,-9.739613,0.18195933,22.199999,45.3,-11.04,0.007456851,-0.014913702,-0.08522116
1710733220638,-0.04070143,-9.763555,0.35194764,21.96,45.6,-12.0,0.047404267,-0.042077947,-0.077231675
1710733220742,0.062249243,-9.770737,0.51475334,21.539999,45.78,-12.54,0.02609898,-0.002130529,-0.008522116
1710733220847,-0.05267244,-9.715671,0.4309563,21.3,45.3,-12.48,0.0015978967,0.028229509,0.002130529
1710733220951,0.050278235,-9.751583,0.49559975,21.359999,45.96,-12.599999,-0.011717909,0.018109497,0.06764429
1710733221058,-0.25617957,-9.775525,0.39025488,21.06,45.059998,-12.42,-0.016511599,0.007989483,-0.0053263223
1710733221163,0.047884032,-9.720459,0.35434186,20.82,45.0,-12.719999,0.006924219,-0.015978966,-0.006924219
1710733221260,0.045489833,-9.744401,0.34955344,22.02,45.239998,-12.059999,0.06870956,-0.080960095,0.08894958
1710733221382,-0.34715924,-9.758766,0.51475334,21.42,45.12,-12.3,0.0026631611,-0.011185277,-0.066046394
1710733221479,-0.06943185,-9.7803135,0.46686932,21.66,45.36,-12.719999,-0.006924219,-0.004261058,-0.06711166
1710733221586,0.107739076,-9.758766,0.38307226,21.3,46.02,-12.179999,0.01917476,-0.02130529,-0.0063915867
1710733221690,0.023942016,-9.751583,0.5291186,21.24,44.82,-13.139999,0.047404267,-0.029294772,0.05006743
1710733221795,-0.10295067,-9.739613,0.5243302,21.539999,45.539997,-13.0199995,0.02876214,-0.009054748,0.024501082
1710733221895,-0.023942016,-9.710882,0.6368576,21.24,44.7,-12.78,0.0058589545,-0.017044231,0.0037284256
1710733222001,-0.1364695,-9.727641,0.60094464,21.42,45.239998,-12.54,-0.0010652645,-0.01917476,0.053795855
1710733222108,-0.17717093,-9.722853,0.5746084,21.84,45.6,-13.08,-0.018109497,0.01438107,0.0063915867
1710733222212,-0.25139117,-9.77792,0.5267244,22.14,44.879997,-12.42,-0.030360037,0.0026631611,-0.018109497
1710733222319,-0.093373865,-9.725247,0.48123455,21.9,45.36,-13.139999,-0.018642128,-0.0127831735,-0.0058589545
1710733222418,-0.21547815,-9.773131,0.49559975,21.72,45.84,-12.36,-5.326322E-4,0.0037284256,-0.0026631611
1710733222527,-0.074220255,-9.746795,0.47165772,21.06,46.2,-11.94,-0.013848438,0.028229509,-0.035153728
1710733222633,-0.074220255,-9.744401,0.45010993,21.84,45.719997,-12.059999,0.004261058,0.0058589545,0.0314253
1710733222737,-0.16998832,-9.7563715,0.45968673,21.84,44.46,-13.44,0.0127831735,-0.01438107,0.0037284256
1710733222843,-0.095768064,-9.7563715,0.5506664,22.02,45.6,-12.96,0.026631612,-0.034088463,0.017044231
1710733222950,-0.16998832,-9.758766,0.5363012,21.9,45.539997,-12.84,0.024501082,-0.013315806,0.01917476
1710733223054,-0.15562311,-9.734824,0.533907,22.14,44.579998,-13.62,0.010652645,-0.011185277,-0.027164243
1710733223159,-0.062249243,-9.746795,0.557849,21.24,44.76,-13.74,0.008522116,-0.0010652645,-0.039414786
1710733223264,-0.06464344,-9.742006,0.5722142,20.52,44.7,-13.5,0.009054748,0.0053263223,0.03355583
1710733223369,-0.18674773,-9.749189,0.59855044,21.84,44.64,-13.38,-0.010652645,-0.002130529,-0.016511599
1710733223474,-0.031124622,-9.734824,0.51714754,21.539999,45.42,-13.08,0.0015978967,-0.011185277,-0.01917476
1710733223579,-0.08619126,-9.7563715,0.545878,22.32,45.12,-13.259999,0.002130529,5.326322E-4,-0.010120012
1710733223682,-0.18195933,-9.751583,0.58897364,21.0,45.12,-13.259999,0.004261058,0.014913702,-0.014913702
1710733223788,-0.021547815,-9.713276,0.4381389,21.539999,44.76,-13.32,0.0037284256,-0.020240024,-0.05539375
1710733223896,0.079008654,-9.742006,0.5482722,20.279999,45.48,-13.139999,0.018642128,-0.01438107,0.0037284256
1710733223999,-0.05746084,-9.773131,0.56982,21.66,45.12,-13.32,0.02609898,-0.034088463,0.023435818
1710733224105,0.01436521,-9.720459,0.59855044,21.18,44.82,-13.62,0.018109497,-0.01917476,0.015978966
1710733224211,-0.050278235,-9.763555,0.6584055,21.3,45.42,-13.799999,0.007989483,-0.0127831735,0.036751624
1710733224315,-0.1364695,-9.770737,0.59136784,21.42,44.879997,-13.679999,0.007989483,-0.013848438,0.036751624
1710733224419,-0.12928689,-9.744401,0.7206547,21.66,44.579998,-14.28,0.008522116,0.0010652645,0.018109497
1710733224525,-0.33997664,-9.7563715,0.6679823,21.84,45.12,-13.62,-0.04580637,0.066046394,-0.0628506
1710733224631,0.021547815,-9.701305,0.60573304,21.539999,45.12,-13.98,-0.041545313,0.05273059,-0.10546118
1710733224736,0.22744916,-9.737218,0.47644615,20.16,45.48,-13.08,0.016511599,0.029827405,-0.04474111
1710733224842,0.007182605,-9.730036,0.6823475,21.0,45.6,-13.08,0.06338324,0.048469532,-0.051132694
1710733224947,0.21068975,-9.722853,0.6895301,20.1,46.02,-13.08,0.041545313,-0.036218993,-0.11717909
1710733225053,0.5506664,-9.725247,0.7565677,20.52,45.84,-13.74,0.06338324,-0.10546118,0.04261058
1710733225157,0.14844051,-9.737218,0.81163436,19.98,44.579998,-13.38,0.066046394,-0.06498113,0.13369069
1710733225263,-0.1364695,-9.706094,0.8331822,20.52,45.42,-14.219999,0.027696876,-0.0010652645,0.04474111
1710733225368,0.12449849,-9.763555,0.89782566,20.82,45.42,-13.559999,-0.017576864,-0.00958738,-0.04261058
1710733225475,0.21308395,-9.725247,0.8499416,20.939999,45.48,-13.38,-0.021837922,-0.027696876,0.015978966
1710733225576,0.04070143,-9.7563715,0.80445176,21.0,44.64,-13.74,-0.041545313,0.03568636,0.07137272
1710733225683,-0.32321724,-9.7324295,0.7206547,20.88,45.18,-15.42,-0.029294772,0.033023197,0.002130529
1710733225787,0.07182605,-9.727641,0.6655881,20.52,45.3,-13.62,-0.02396845,-0.024501082,-0.05219796
1710733225894,0.08619126,-9.742006,0.7781156,20.64,44.879997,-13.98,0.007989483,-5.326322E-4,0.053263225
1710733225998,-0.19871874,-9.7563715,0.7469909,20.4,44.46,-13.679999,-0.017044231,-0.0010652645,0.009054748
1710733226102,0.10295067,-9.727641,0.6847417,21.06,45.0,-14.28,-0.020240024,-0.027164243,-0.033023197
1710733226208,0.009576807,-9.7563715,0.6751649,21.119999,44.94,-13.86,0.00479369,0.010652645,0.0479369
1710733226312,-0.12928689,-9.749189,0.6943185,20.64,45.3,-14.28,0.0058589545,0.015446335,-0.041545313
1710733226421,0.15322891,-9.730036,0.6799533,21.3,45.719997,-14.759999,0.0031957934,-0.013848438,-0.021837922
1710733226526,0.04070143,-9.7084875,0.6799533,21.24,44.7,-14.46,0.016511599,-0.0010652645,0.039947417
1710733226634,-0.16519992,-9.744401,0.7134721,20.76,44.399998,-13.86,0.009054748,-0.017044231,-0.03355583
1710733226737,0.15322891,-9.758766,0.7541735,21.06,45.239998,-14.5199995,0.010120012,-0.02396845,-0.02396845
1710733226842,0.050278235,-9.751583,0.7757214,20.64,45.48,-13.92,-5.326322E-4,0.007456851,0.0127831735
1710733226947,0.02873042,-9.715671,0.7182605,20.46,45.059998,-14.759999,-0.011185277,0.006924219,0.0015978967
1710733227052,-0.04309563,-9.730036,0.7038953,20.58,45.059998,-15.36,-0.03355583,0.06338324,-0.006924219
1710733227156,0.038307227,-9.734824,0.6464345,21.72,44.76,-14.34,-0.011185277,0.015978966,-0.0026631611
1710733227260,0.088585466,-9.696517,0.6967127,20.699999,44.82,-14.04,-0.0037284256,-0.00479369,-0.0015978967
1710733227369,-0.05267244,-9.742006,0.7781156,20.76,45.239998,-13.86,-0.0031957934,-0.0037284256,-0.0031957934
1710733227474,-0.016759412,-9.763555,0.62488663,21.0,45.42,-13.559999,-0.0053263223,-0.0058589545,-0.099069595
1710733227579,0.35673606,-9.742006,0.7637503,20.64,45.239998,-14.46,0.036751624,-0.061252706,0.013848438
1710733227683,0.05267244,-9.725247,0.7182605,20.88,45.78,-14.5199995,0.029827405,-0.011185277,0.10759171
1710733227790,-0.24899697,-9.794679,0.6895301,20.279999,45.66,-14.88,0.008522116,0.03355583,-0.024501082
1710733227897,0.2633622,-9.689334,0.7374141,21.3,45.6,-13.38,0.00958738,0.017044231,-0.03355583
1710733228003,0.050278235,-9.703699,0.7661445,20.939999,45.36,-14.58,0.010652645,-0.02609898,0.029827405
1710733228106,-0.02873042,-9.734824,0.79487497,20.58,45.48,-14.46,-0.008522116,-0.014913702,-0.013848438
1710733228211,0.14604631,-9.713276,0.7493851,20.16,45.3,-13.98,-0.0127831735,0.046339005,-0.02130529
1710733228315,0.047884032,-9.744401,0.78529817,20.76,45.719997,-13.92,-0.006924219,0.03834952,0.02609898
1710733228421,0.12928689,-9.730036,0.7589619,20.1,45.18,-14.88,-5.326322E-4,-0.020772656,-0.040480047
1710733228525,0.22026655,-9.746795,0.8283938,20.4,45.719997,-13.86,0.0053263223,-0.022903185,-0.010120012
1710733228631,-0.12928689,-9.753978,0.81163436,20.82,45.66,-14.639999,0.013315806,0.027696876,-0.020240024
1710733228733,0.23223756,-9.751583,0.90261406,20.279999,46.079998,-13.98,-0.0127831735,0.008522116,-0.06338324
1710733228840,0.47884035,-9.691729,0.7326257,20.46,44.94,-14.219999,-0.007989483,-0.04580637,0.0037284256
1710733228944,0.20829555,-9.694122,0.7086837,19.619999,45.539997,-13.38,0.02609898,-0.027696876,0.1304949
1710733229050,-0.15083471,-9.720459,0.7230489,19.92,44.579998,-14.7,0.00479369,0.010120012,0.049534798
1710733229155,-0.050278235,-9.737218,0.7469909,20.22,44.7,-14.7,-0.014913702,0.024501082,-0.051132694
1710733229259,0.19632454,-9.715671,0.7493851,20.82,44.82,-14.219999,-0.011185277,-0.0026631611,-0.03781689
1710733229365,0.14604631,-9.713276,0.7278373,19.92,45.239998,-14.099999,0.0015978967,0.0063915867,0.0063915867
1710733229471,0.09816227,-9.713276,0.79966336,20.46,44.76,-14.639999,0.0037284256,0.00479369,0.0015978967
1710733229575,0.15083471,-9.7084875,0.78290397,20.699999,45.3,-14.04,0.011185277,-0.00958738,0.041012682
1710733229681,-0.1412579,-9.7563715,0.7182605,20.699999,44.879997,-13.86,0.022903185,-0.004261058,0.036218993
1710733229786,0.06703765,-9.751583,0.8810662,20.699999,44.64,-14.5199995,0.019707393,-0.036218993,0.049002163
1710733229891,-0.23223756,-9.725247,0.8379706,21.06,44.64,-15.0,0.002130529,0.02876214,0.056459017
1710733229995,-0.1316811,-9.742006,0.81163436,21.24,44.82,-14.4,-0.019707393,0.024501082,-0.05486112
1710733230101,0.06703765,-9.713276,0.79008657,21.18,45.18,-14.58,-0.0037284256,-0.0127831735,-0.004261058
1710733230206,-0.095768064,-9.730036,0.79248077,20.82,44.219997,-14.219999,0.0010652645,0.0037284256,0.015446335
1710733230310,-0.047884032,-9.737218,0.7637503,21.359999,44.94,-14.58,-0.017576864,0.01917476,-0.015978966
1710733230415,-0.07182605,-9.720459,0.8475474,20.64,44.399998,-14.34,-0.017044231,0.006924219,-0.07190535
1710733230520,0.20590134,-9.730036,0.7757214,20.46,44.82,-14.58,-0.01438107,-0.012250541,-0.025033714
1710733230625,0.038307227,-9.737218,0.7517793,20.699999,45.3,-14.04,-0.0026631611,0.018642128,0.007989483
1710733230731,0.107739076,-9.749189,0.7517793,21.48,45.239998,-14.5199995,0.0037284256,-0.0127831735,-0.0037284256
1710733230835,0.074220255,-9.710882,0.7326257,20.64,44.579998,-13.92,0.0037284256,-0.0031957934,0.02876214
1710733230940,-0.023942016,-9.720459,0.6895301,20.82,44.879997,-13.98,-0.016511599,0.014913702,-0.025033714
1710733231045,0.1340753,-9.7324295,0.7086837,20.4,45.239998,-14.28,-0.013315806,0.013315806,-0.04314321
1710733231150,0.1316811,-9.7324295,0.7158663,20.4,45.84,-14.04,0.010120012,-0.014913702,0.034621093
1710733231255,-0.074220255,-9.734824,0.6967127,20.34,45.239998,-14.46,-5.326322E-4,-0.021837922,5.326322E-4
1710733231361,0.15083471,-9.749189,0.7781156,20.4,45.0,-14.099999,0.0010652645,-0.026631612,0.022370555
1710733231466,-0.12210429,-9.737218,0.7493851,20.58,45.0,-14.04,-0.009054748,0.0,0.03568636
